PreCondName,TrgCol,ratingName_EN,ratingName_CN,CSName,UCSName,SoundName,ExtName,PreCond.thisRepN,PreCond.thisTrialN,PreCond.thisN,PreCond.thisIndex,RatingPreCond.thisRepN,RatingPreCond.thisTrialN,RatingPreCond.thisN,RatingPreCond.thisIndex,Cond.thisRepN,Cond.thisTrialN,Cond.thisN,Cond.thisIndex,RatingCond.thisRepN,RatingCond.thisTrialN,RatingCond.thisN,RatingCond.thisIndex,Extinction.thisRepN,Extinction.thisTrialN,Extinction.thisN,Extinction.thisIndex,RatingExt.thisRepN,RatingExt.thisTrialN,RatingExt.thisN,RatingExt.thisIndex,InstrBkg.started,TagFig.started,InstrKeyResp.started,InstrKeyResp.keys,InstrKeyResp.rt,precondBkg.started,imagePreCond.started,imagePreCond.stopped,BlankBkg.started,BlankBkg.stopped,Bkg.started,image.started,Scale.started,Scale.response,Scale.rt,fearRating.keys,fearRating.rt,InstrBkg2.started,TagFig2.started,key_resp.started,key_resp.keys,key_resp.rt,CSBkg.started,CS_image.started,UCSBkg.started,UCS_image.started,sound_1.started,InstrBkg3.started,TagFig3.started,key_resp_3.started,key_resp_3.keys,key_resp_3.rt,ExtBkg.started,Ext_image.started,EndTxt.started,participant,session,date,expName,psychopyVersion,frameRate,
,,,,,,,,,,,,,,,,,,,,,,,,,,,,,,,,24.808165958005702,24.808165958005702,24.808165958005702,space,89.13234862500394,,,,,,,,,,,,,,,,,,,,,,,,,,,,,,,2023_31_01_Shaoxun,001,2023-01-31_16h43.14.738,FigureTest,2022.2.4,74.38087203024789,
Stimuli/CS+4.BMP,0.4,,,,,,,0,0,0,12,,,,,,,,,,,,,,,,,,,,,,,,,,114.259826583002,114.259826583002,120.13644712499809,120.1642370000045,124.45008145799511,,,,,,,,,,,,,,,,,,,,,,,,,,2023_31_01_Shaoxun,001,2023-01-31_16h43.14.738,FigureTest,2022.2.4,74.38087203024789,
Stimuli/CS+3.BMP,-0.1,,,,,,,0,1,1,4,,,,,,,,,,,,,,,,,,,,,,,,,,124.45008145799511,124.45008145799511,130.4337855000049,130.4468749170046,134.62843895799597,,,,,,,,,,,,,,,,,,,,,,,,,,2023_31_01_Shaoxun,001,2023-01-31_16h43.14.738,FigureTest,2022.2.4,74.38087203024789,
Stimuli/CS+4.BMP,0.4,,,,,,,0,2,2,14,,,,,,,,,,,,,,,,,,,,,,,,,,134.62843895799597,134.62843895799597,140.61130458299886,140.62515337500372,144.93870995800535,,,,,,,,,,,,,,,,,,,,,,,,,,2023_31_01_Shaoxun,001,2023-01-31_16h43.14.738,FigureTest,2022.2.4,74.38087203024789,
Stimuli/CS+3.BMP,-0.1,,,,,,,0,3,3,0,,,,,,,,,,,,,,,,,,,,,,,,,,144.93870995800535,144.93870995800535,150.92194429200026,150.9344219580089,155.1063801249984,,,,,,,,,,,,,,,,,,,,,,,,,,2023_31_01_Shaoxun,001,2023-01-31_16h43.14.738,FigureTest,2022.2.4,74.38087203024789,
Stimuli/CS+4.BMP,0.4,,,,,,,0,4,4,13,,,,,,,,,,,,,,,,,,,,,,,,,,155.1063801249984,155.1063801249984,161.08719279200886,161.09943816700252,165.33345583299524,,,,,,,,,,,,,,,,,,,,,,,,,,2023_31_01_Shaoxun,001,2023-01-31_16h43.14.738,FigureTest,2022.2.4,74.38087203024789,
Stimuli/CS+1.BMP,0.4,,,,,,,0,5,5,5,,,,,,,,,,,,,,,,,,,,,,,,,,165.33345583299524,165.33345583299524,171.2909570000047,171.30366008300916,175.4043160000001,,,,,,,,,,,,,,,,,,,,,,,,,,2023_31_01_Shaoxun,001,2023-01-31_16h43.14.738,FigureTest,2022.2.4,74.38087203024789,
Stimuli/CS+1.BMP,0.4,,,,,,,0,6,6,9,,,,,,,,,,,,,,,,,,,,,,,,,,175.4043160000001,175.4043160000001,181.38769441700424,181.40160075000313,185.5402794170077,,,,,,,,,,,,,,,,,,,,,,,,,,2023_31_01_Shaoxun,001,2023-01-31_16h43.14.738,FigureTest,2022.2.4,74.38087203024789,
Stimuli/CS+3.BMP,-0.1,,,,,,,0,7,7,1,,,,,,,,,,,,,,,,,,,,,,,,,,185.5402794170077,185.5402794170077,191.52450279200275,191.53821945800155,195.9045477920008,,,,,,,,,,,,,,,,,,,,,,,,,,2023_31_01_Shaoxun,001,2023-01-31_16h43.14.738,FigureTest,2022.2.4,74.38087203024789,
Stimuli/CS+1.BMP,0.4,,,,,,,0,8,8,7,,,,,,,,,,,,,,,,,,,,,,,,,,195.9045477920008,195.9045477920008,201.8900169999979,201.90286062500672,206.45433016700554,,,,,,,,,,,,,,,,,,,,,,,,,,2023_31_01_Shaoxun,001,2023-01-31_16h43.14.738,FigureTest,2022.2.4,74.38087203024789,
Stimuli/CS+4.BMP,0.4,,,,,,,0,9,9,11,,,,,,,,,,,,,,,,,,,,,,,,,,206.45433016700554,206.45433016700554,212.43948054200155,212.45364708300622,216.72417462500744,,,,,,,,,,,,,,,,,,,,,,,,,,2023_31_01_Shaoxun,001,2023-01-31_16h43.14.738,FigureTest,2022.2.4,74.38087203024789,
Stimuli/CS+1.BMP,0.4,,,,,,,0,10,10,6,,,,,,,,,,,,,,,,,,,,,,,,,,216.72417462500744,216.72417462500744,222.7102307919995,222.7241428749985,226.81063145800726,,,,,,,,,,,,,,,,,,,,,,,,,,2023_31_01_Shaoxun,001,2023-01-31_16h43.14.738,FigureTest,2022.2.4,74.38087203024789,
Stimuli/CS+1.BMP,0.4,,,,,,,0,11,11,8,,,,,,,,,,,,,,,,,,,,,,,,,,226.81063145800726,226.81063145800726,232.78120641699934,232.79402833299537,236.89293275000819,,,,,,,,,,,,,,,,,,,,,,,,,,2023_31_01_Shaoxun,001,2023-01-31_16h43.14.738,FigureTest,2022.2.4,74.38087203024789,
Stimuli/CS+4.BMP,0.4,,,,,,,0,12,12,10,,,,,,,,,,,,,,,,,,,,,,,,,,236.89293275000819,236.89293275000819,242.878699125009,242.8916698749963,247.08431958300935,,,,,,,,,,,,,,,,,,,,,,,,,,2023_31_01_Shaoxun,001,2023-01-31_16h43.14.738,FigureTest,2022.2.4,74.38087203024789,
Stimuli/CS+3.BMP,-0.1,,,,,,,0,13,13,2,,,,,,,,,,,,,,,,,,,,,,,,,,247.08431958300935,247.08431958300935,253.06902591700782,253.0829439579975,257.4176325419976,,,,,,,,,,,,,,,,,,,,,,,,,,2023_31_01_Shaoxun,001,2023-01-31_16h43.14.738,FigureTest,2022.2.4,74.38087203024789,
Stimuli/CS+3.BMP,-0.1,,,,,,,0,14,14,3,,,,,,,,,,,,,,,,,,,,,,,,,,257.4176325419976,257.4176325419976,263.4070279580046,263.41971800000465,267.6640449580009,,,,,,,,,,,,,,,,,,,,,,,,,,2023_31_01_Shaoxun,001,2023-01-31_16h43.14.738,FigureTest,2022.2.4,74.38087203024789,
,-0.1,Instructions_EN/ratingCS+1.png,Instructions_CN/ratingCS+1.png,,,,,,,,,0,0,0,0,,,,,,,,,,,,,,,,,,,,,,,,,,,267.6640449580009,267.6640449580009,267.6640449580009,None,None,2,11.019576832986786,,,,,,,,,,,,,,,,,,,2023_31_01_Shaoxun,001,2023-01-31_16h43.14.738,FigureTest,2022.2.4,74.38087203024789,
,0.4,Instructions_EN/ratingCS+3.png,Instructions_CN/ratingCS+3.png,,,,,,,,,0,1,1,1,,,,,,,,,,,,,,,,,,,,,,,,,,,278.79871083299804,278.79871083299804,278.79871083299804,None,None,2,5.077519458995084,,,,,,,,,,,,,,,,,,,2023_31_01_Shaoxun,001,2023-01-31_16h43.14.738,FigureTest,2022.2.4,74.38087203024789,
,-0.1,Instructions_EN/ratingCS+4.png,Instructions_CN/ratingCS+4.png,,,,,,,,,0,2,2,2,,,,,,,,,,,,,,,,,,,,,,,,,,,283.91746416699607,283.91746416699607,283.91746416699607,None,None,2,1.6849005830008537,,,,,,,,,,,,,,,,,,,2023_31_01_Shaoxun,001,2023-01-31_16h43.14.738,FigureTest,2022.2.4,74.38087203024789,
,,,,,,,,,,,,,,,,,,,,,,,,,,,,,,,,,,,,,,,,,,,,,,,,,285.6277586250071,285.6277586250071,285.6277586250071,space,474.2427942909999,,,,,,,,,,,,,,2023_31_01_Shaoxun,001,2023-01-31_16h43.14.738,FigureTest,2022.2.4,74.38087203024789,
,-0.1,,,Stimuli/CS+4.BMP,Stimuli/black.PNG,Sound/silent.wav,,,,,,,,,,0,0,0,30,,,,,,,,,,,,,,,,,,,,,768.4389440829982,772.5537033330038,,,,,,,,,,,,,760.1549931250047,760.1549931250047,,,,,,,,,,,,2023_31_01_Shaoxun,001,2023-01-31_16h43.14.738,FigureTest,2022.2.4,74.38087203024789,
,0.9,,,Stimuli/CS+1.BMP,Stimuli/UCS1.BMP,Sound/scream1.wav,,,,,,,,,,0,1,1,11,,,,,,,,,,,,,,,,,,,,,779.5438794170041,783.6331225830072,,,,,,,,,,,,,772.5537033330038,772.5537033330038,778.672613667004,778.672613667004,778.6644996250106,,,,,,,,,2023_31_01_Shaoxun,001,2023-01-31_16h43.14.738,FigureTest,2022.2.4,74.38087203024789,
,0.4,,,Stimuli/CS+3.BMP,Stimuli/black.PNG,Sound/silent.wav,,,,,,,,,,0,2,2,16,,,,,,,,,,,,,,,,,,,,,791.6727168750076,795.9859702079993,,,,,,,,,,,,,783.6331225830072,783.6331225830072,,,,,,,,,,,,2023_31_01_Shaoxun,001,2023-01-31_16h43.14.738,FigureTest,2022.2.4,74.38087203024789,
,0.9,,,Stimuli/CS+1.BMP,Stimuli/UCS1.BMP,Sound/scream1.wav,,,,,,,,,,0,3,3,8,,,,,,,,,,,,,,,,,,,,,802.9802145830035,807.1054908750084,,,,,,,,,,,,,795.9859702079993,795.9859702079993,802.0406249579974,802.0406249579974,802.0464438670082,,,,,,,,,2023_31_01_Shaoxun,001,2023-01-31_16h43.14.738,FigureTest,2022.2.4,74.38087203024789,
,0.4,,,Stimuli/CS+3.BMP,Stimuli/black.PNG,Sound/silent.wav,,,,,,,,,,0,4,4,28,,,,,,,,,,,,,,,,,,,,,815.2195000000065,819.6229843750043,,,,,,,,,,,,,807.1054908750084,807.1054908750084,,,,,,,,,,,,2023_31_01_Shaoxun,001,2023-01-31_16h43.14.738,FigureTest,2022.2.4,74.38087203024789,
,0.4,,,Stimuli/CS+3.BMP,Stimuli/black.PNG,Sound/silent.wav,,,,,,,,,,0,5,5,19,,,,,,,,,,,,,,,,,,,,,827.7005164580041,831.8247202920029,,,,,,,,,,,,,819.6229843750043,819.6229843750043,,,,,,,,,,,,2023_31_01_Shaoxun,001,2023-01-31_16h43.14.738,FigureTest,2022.2.4,74.38087203024789,
,0.9,,,Stimuli/CS+4.BMP,Stimuli/UCS4.BMP,Sound/laugh1.wav,,,,,,,,,,0,6,6,34,,,,,,,,,,,,,,,,,,,,,838.8210887919995,842.9995884170057,,,,,,,,,,,,,831.8247202920029,831.8247202920029,837.9258386669972,837.9258386669972,837.9143391000135,,,,,,,,,2023_31_01_Shaoxun,001,2023-01-31_16h43.14.738,FigureTest,2022.2.4,74.38087203024789,
,-0.1,,,Stimuli/CS+1.BMP,Stimuli/black.PNG,Sound/silent.wav,,,,,,,,,,0,7,7,2,,,,,,,,,,,,,,,,,,,,,851.0923972500023,855.435373750006,,,,,,,,,,,,,842.9995884170057,842.9995884170057,,,,,,,,,,,,2023_31_01_Shaoxun,001,2023-01-31_16h43.14.738,FigureTest,2022.2.4,74.38087203024789,
,0.4,,,Stimuli/CS+3.BMP,Stimuli/black.PNG,Sound/silent.wav,,,,,,,,,,0,8,8,29,,,,,,,,,,,,,,,,,,,,,863.5162649580016,867.7334844169964,,,,,,,,,,,,,855.435373750006,855.435373750006,,,,,,,,,,,,2023_31_01_Shaoxun,001,2023-01-31_16h43.14.738,FigureTest,2022.2.4,74.38087203024789,
,0.9,,,Stimuli/CS+4.BMP,Stimuli/UCS4.BMP,Sound/laugh1.wav,,,,,,,,,,0,9,9,35,,,,,,,,,,,,,,,,,,,,,874.7286104170053,879.0298635000072,,,,,,,,,,,,,867.7334844169964,867.7334844169964,873.8069495000091,873.8069495000091,873.7949779500108,,,,,,,,,2023_31_01_Shaoxun,001,2023-01-31_16h43.14.738,FigureTest,2022.2.4,74.38087203024789,
,0.4,,,Stimuli/CS+3.BMP,Stimuli/black.PNG,Sound/silent.wav,,,,,,,,,,0,10,10,18,,,,,,,,,,,,,,,,,,,,,887.1766783330095,891.2279288330028,,,,,,,,,,,,,879.0298635000072,879.0298635000072,,,,,,,,,,,,2023_31_01_Shaoxun,001,2023-01-31_16h43.14.738,FigureTest,2022.2.4,74.38087203024789,
,0.9,,,Stimuli/CS+1.BMP,Stimuli/UCS1.BMP,Sound/scream1.wav,,,,,,,,,,0,11,11,13,,,,,,,,,,,,,,,,,,,,,898.2170669580082,902.3949943330081,,,,,,,,,,,,,891.2279288330028,891.2279288330028,897.2938237500057,897.2938237500057,897.2974323170026,,,,,,,,,2023_31_01_Shaoxun,001,2023-01-31_16h43.14.738,FigureTest,2022.2.4,74.38087203024789,
,0.9,,,Stimuli/CS+1.BMP,Stimuli/UCS1.BMP,Sound/scream1.wav,,,,,,,,,,0,12,12,12,,,,,,,,,,,,,,,,,,,,,909.3954695830034,913.466335457997,,,,,,,,,,,,,902.3949943330081,902.3949943330081,908.397368667007,908.397368667007,908.3950403670082,,,,,,,,,2023_31_01_Shaoxun,001,2023-01-31_16h43.14.738,FigureTest,2022.2.4,74.38087203024789,
,0.9,,,Stimuli/CS+4.BMP,Stimuli/UCS4.BMP,Sound/laugh1.wav,,,,,,,,,,0,13,13,33,,,,,,,,,,,,,,,,,,,,,920.4661406670057,924.5240418750036,,,,,,,,,,,,,913.466335457997,913.466335457997,919.4678057080018,919.4678057080018,919.4659598670027,,,,,,,,,2023_31_01_Shaoxun,001,2023-01-31_16h43.14.738,FigureTest,2022.2.4,74.38087203024789,
,0.4,,,Stimuli/CS+3.BMP,Stimuli/black.PNG,Sound/silent.wav,,,,,,,,,,0,14,14,25,,,,,,,,,,,,,,,,,,,,,932.7169436249969,936.8986279999954,,,,,,,,,,,,,924.5240418750036,924.5240418750036,,,,,,,,,,,,2023_31_01_Shaoxun,001,2023-01-31_16h43.14.738,FigureTest,2022.2.4,74.38087203024789,
,0.4,,,Stimuli/CS+3.BMP,Stimuli/black.PNG,Sound/silent.wav,,,,,,,,,,0,15,15,27,,,,,,,,,,,,,,,,,,,,,945.0225987500016,949.1174581670057,,,,,,,,,,,,,936.8986279999954,936.8986279999954,,,,,,,,,,,,2023_31_01_Shaoxun,001,2023-01-31_16h43.14.738,FigureTest,2022.2.4,74.38087203024789,
,0.4,,,Stimuli/CS+3.BMP,Stimuli/black.PNG,Sound/silent.wav,,,,,,,,,,0,16,16,17,,,,,,,,,,,,,,,,,,,,,957.1529610419966,961.3461727079994,,,,,,,,,,,,,949.1174581670057,949.1174581670057,,,,,,,,,,,,2023_31_01_Shaoxun,001,2023-01-31_16h43.14.738,FigureTest,2022.2.4,74.38087203024789,
,0.9,,,Stimuli/CS+1.BMP,Stimuli/UCS1.BMP,Sound/scream1.wav,,,,,,,,,,0,17,17,14,,,,,,,,,,,,,,,,,,,,,968.3384517920058,972.4219778330007,,,,,,,,,,,,,961.3461727079994,961.3461727079994,967.4067640830035,967.4067640830035,967.4053014920122,,,,,,,,,2023_31_01_Shaoxun,001,2023-01-31_16h43.14.738,FigureTest,2022.2.4,74.38087203024789,
,0.9,,,Stimuli/CS+4.BMP,Stimuli/UCS4.BMP,Sound/laugh1.wav,,,,,,,,,,0,18,18,41,,,,,,,,,,,,,,,,,,,,,979.4226966669958,983.5857303329976,,,,,,,,,,,,,972.4219778330007,972.4219778330007,978.4318271670054,978.4318271670054,978.4362439420045,,,,,,,,,2023_31_01_Shaoxun,001,2023-01-31_16h43.14.738,FigureTest,2022.2.4,74.38087203024789,
,0.9,,,Stimuli/CS+4.BMP,Stimuli/UCS4.BMP,Sound/laugh1.wav,,,,,,,,,,0,19,19,40,,,,,,,,,,,,,,,,,,,,,990.5866191670066,994.753400667003,,,,,,,,,,,,,983.5857303329976,983.5857303329976,989.5909599580045,989.5909599580045,989.5871223670023,,,,,,,,,2023_31_01_Shaoxun,001,2023-01-31_16h43.14.738,FigureTest,2022.2.4,74.38087203024789,
,0.9,,,Stimuli/CS+1.BMP,Stimuli/UCS1.BMP,Sound/scream1.wav,,,,,,,,,,0,20,20,3,,,,,,,,,,,,,,,,,,,,,1001.7516621249961,1005.8489872500068,,,,,,,,,,,,,994.753400667003,994.753400667003,1000.7556849579996,1000.7556849579996,1000.7525369499984,,,,,,,,,2023_31_01_Shaoxun,001,2023-01-31_16h43.14.738,FigureTest,2022.2.4,74.38087203024789,
,0.9,,,Stimuli/CS+4.BMP,Stimuli/UCS4.BMP,Sound/laugh1.wav,,,,,,,,,,0,21,21,37,,,,,,,,,,,,,,,,,,,,,1012.8496929170069,1016.9751562080055,,,,,,,,,,,,,1005.8489872500068,1005.8489872500068,1011.8514817499963,1011.8514817499963,1011.8496839500061,,,,,,,,,2023_31_01_Shaoxun,001,2023-01-31_16h43.14.738,FigureTest,2022.2.4,74.38087203024789,
,0.4,,,Stimuli/CS+3.BMP,Stimuli/black.PNG,Sound/silent.wav,,,,,,,,,,0,22,22,22,,,,,,,,,,,,,,,,,,,,,1025.0397383329982,1029.2116892920021,,,,,,,,,,,,,1016.9751562080055,1016.9751562080055,,,,,,,,,,,,2023_31_01_Shaoxun,001,2023-01-31_16h43.14.738,FigureTest,2022.2.4,74.38087203024789,
,-0.1,,,Stimuli/CS+1.BMP,Stimuli/black.PNG,Sound/silent.wav,,,,,,,,,,0,23,23,0,,,,,,,,,,,,,,,,,,,,,1037.4422437920002,1041.503081917006,,,,,,,,,,,,,1029.2116892920021,1029.2116892920021,,,,,,,,,,,,2023_31_01_Shaoxun,001,2023-01-31_16h43.14.738,FigureTest,2022.2.4,74.38087203024789,
,0.4,,,Stimuli/CS+3.BMP,Stimuli/black.PNG,Sound/silent.wav,,,,,,,,,,0,24,24,21,,,,,,,,,,,,,,,,,,,,,1049.5928196669993,1053.7311997500074,,,,,,,,,,,,,1041.503081917006,1041.503081917006,,,,,,,,,,,,2023_31_01_Shaoxun,001,2023-01-31_16h43.14.738,FigureTest,2022.2.4,74.38087203024789,
,0.9,,,Stimuli/CS+1.BMP,Stimuli/UCS1.BMP,Sound/scream1.wav,,,,,,,,,,0,25,25,9,,,,,,,,,,,,,,,,,,,,,1060.721575625008,1065.2029202080012,,,,,,,,,,,,,1053.7311997500074,1053.7311997500074,1059.8273168330052,1059.8273168330052,1059.8152186420077,,,,,,,,,2023_31_01_Shaoxun,001,2023-01-31_16h43.14.738,FigureTest,2022.2.4,74.38087203024789,
,-0.1,,,Stimuli/CS+4.BMP,Stimuli/black.PNG,Sound/silent.wav,,,,,,,,,,0,26,26,32,,,,,,,,,,,,,,,,,,,,,1073.3436426249973,1077.4579844580003,,,,,,,,,,,,,1065.2029202080012,1065.2029202080012,,,,,,,,,,,,2023_31_01_Shaoxun,001,2023-01-31_16h43.14.738,FigureTest,2022.2.4,74.38087203024789,
,0.4,,,Stimuli/CS+3.BMP,Stimuli/black.PNG,Sound/silent.wav,,,,,,,,,,0,27,27,20,,,,,,,,,,,,,,,,,,,,,1085.5201086250017,1089.663247250006,,,,,,,,,,,,,1077.4579844580003,1077.4579844580003,,,,,,,,,,,,2023_31_01_Shaoxun,001,2023-01-31_16h43.14.738,FigureTest,2022.2.4,74.38087203024789,
,0.4,,,Stimuli/CS+3.BMP,Stimuli/black.PNG,Sound/silent.wav,,,,,,,,,,0,28,28,24,,,,,,,,,,,,,,,,,,,,,1097.9150673749973,1102.1259365000005,,,,,,,,,,,,,1089.663247250006,1089.663247250006,,,,,,,,,,,,2023_31_01_Shaoxun,001,2023-01-31_16h43.14.738,FigureTest,2022.2.4,74.38087203024789,
,0.9,,,Stimuli/CS+4.BMP,Stimuli/UCS4.BMP,Sound/laugh1.wav,,,,,,,,,,0,29,29,38,,,,,,,,,,,,,,,,,,,,,1109.114611625002,1113.2786627080059,,,,,,,,,,,,,1102.1259365000005,1102.1259365000005,1108.173551957996,1108.173551957996,1108.180956283008,,,,,,,,,2023_31_01_Shaoxun,001,2023-01-31_16h43.14.738,FigureTest,2022.2.4,74.38087203024789,
,0.9,,,Stimuli/CS+1.BMP,Stimuli/UCS1.BMP,Sound/scream1.wav,,,,,,,,,,0,30,30,6,,,,,,,,,,,,,,,,,,,,,1120.2784628329973,1124.321052875006,,,,,,,,,,,,,1113.2786627080059,1113.2786627080059,1119.2878195000085,1119.2878195000085,1119.2916799420027,,,,,,,,,2023_31_01_Shaoxun,001,2023-01-31_16h43.14.738,FigureTest,2022.2.4,74.38087203024789,
,-0.1,,,Stimuli/CS+4.BMP,Stimuli/black.PNG,Sound/silent.wav,,,,,,,,,,0,31,31,31,,,,,,,,,,,,,,,,,,,,,1132.4450167500036,1136.7868134169985,,,,,,,,,,,,,1124.321052875006,1124.321052875006,,,,,,,,,,,,2023_31_01_Shaoxun,001,2023-01-31_16h43.14.738,FigureTest,2022.2.4,74.38087203024789,
,0.9,,,Stimuli/CS+1.BMP,Stimuli/UCS1.BMP,Sound/scream1.wav,,,,,,,,,,0,32,32,4,,,,,,,,,,,,,,,,,,,,,1143.7811062920082,1148.0641107499978,,,,,,,,,,,,,1136.7868134169985,1136.7868134169985,1142.8448527080036,1142.8448527080036,1142.8476850750071,,,,,,,,,2023_31_01_Shaoxun,001,2023-01-31_16h43.14.738,FigureTest,2022.2.4,74.38087203024789,
,0.4,,,Stimuli/CS+3.BMP,Stimuli/black.PNG,Sound/silent.wav,,,,,,,,,,0,33,33,15,,,,,,,,,,,,,,,,,,,,,1156.1167242920055,1160.4636340419966,,,,,,,,,,,,,1148.0641107499978,1148.0641107499978,,,,,,,,,,,,2023_31_01_Shaoxun,001,2023-01-31_16h43.14.738,FigureTest,2022.2.4,74.38087203024789,
,0.9,,,Stimuli/CS+4.BMP,Stimuli/UCS4.BMP,Sound/laugh1.wav,,,,,,,,,,0,34,34,39,,,,,,,,,,,,,,,,,,,,,1167.4573015420028,1171.5942907499993,,,,,,,,,,,,,1160.4636340419966,1160.4636340419966,1166.5305187500053,1166.5305187500053,1166.5373623580062,,,,,,,,,2023_31_01_Shaoxun,001,2023-01-31_16h43.14.738,FigureTest,2022.2.4,74.38087203024789,
,0.9,,,Stimuli/CS+4.BMP,Stimuli/UCS4.BMP,Sound/laugh1.wav,,,,,,,,,,0,35,35,42,,,,,,,,,,,,,,,,,,,,,1178.5950136669999,1182.867611958005,,,,,,,,,,,,,1171.5942907499993,1171.5942907499993,1177.5954818330065,1177.5954818330065,1177.594883742006,,,,,,,,,2023_31_01_Shaoxun,001,2023-01-31_16h43.14.738,FigureTest,2022.2.4,74.38087203024789,
,-0.1,,,Stimuli/CS+1.BMP,Stimuli/black.PNG,Sound/silent.wav,,,,,,,,,,0,36,36,1,,,,,,,,,,,,,,,,,,,,,1190.9469154580001,1195.1298530000058,,,,,,,,,,,,,1182.867611958005,1182.867611958005,,,,,,,,,,,,2023_31_01_Shaoxun,001,2023-01-31_16h43.14.738,FigureTest,2022.2.4,74.38087203024789,
,0.9,,,Stimuli/CS+4.BMP,Stimuli/UCS4.BMP,Sound/laugh1.wav,,,,,,,,,,0,37,37,44,,,,,,,,,,,,,,,,,,,,,1202.1247550830012,1206.4220900420041,,,,,,,,,,,,,1195.1298530000058,1195.1298530000058,1201.2088553329959,1201.2088553329959,1201.2046404830007,,,,,,,,,2023_31_01_Shaoxun,001,2023-01-31_16h43.14.738,FigureTest,2022.2.4,74.38087203024789,
,0.9,,,Stimuli/CS+1.BMP,Stimuli/UCS1.BMP,Sound/scream1.wav,,,,,,,,,,0,38,38,5,,,,,,,,,,,,,,,,,,,,,1213.4213408750074,1217.667552458006,,,,,,,,,,,,,1206.4220900420041,1206.4220900420041,1212.4244157079956,1212.4244157079956,1212.4226493250085,,,,,,,,,2023_31_01_Shaoxun,001,2023-01-31_16h43.14.738,FigureTest,2022.2.4,74.38087203024789,
,0.4,,,Stimuli/CS+3.BMP,Stimuli/black.PNG,Sound/silent.wav,,,,,,,,,,0,39,39,23,,,,,,,,,,,,,,,,,,,,,1225.821573542009,1229.9576727920066,,,,,,,,,,,,,1217.667552458006,1217.667552458006,,,,,,,,,,,,2023_31_01_Shaoxun,001,2023-01-31_16h43.14.738,FigureTest,2022.2.4,74.38087203024789,
,0.4,,,Stimuli/CS+3.BMP,Stimuli/black.PNG,Sound/silent.wav,,,,,,,,,,0,40,40,26,,,,,,,,,,,,,,,,,,,,,1238.0775817499962,1242.2927532080066,,,,,,,,,,,,,1229.9576727920066,1229.9576727920066,,,,,,,,,,,,2023_31_01_Shaoxun,001,2023-01-31_16h43.14.738,FigureTest,2022.2.4,74.38087203024789,
,0.9,,,Stimuli/CS+4.BMP,Stimuli/UCS4.BMP,Sound/laugh1.wav,,,,,,,,,,0,41,41,36,,,,,,,,,,,,,,,,,,,,,1249.289399625006,1253.4778678750008,,,,,,,,,,,,,1242.2927532080066,1242.2927532080066,1248.3903709169972,1248.3903709169972,1248.396723800013,,,,,,,,,2023_31_01_Shaoxun,001,2023-01-31_16h43.14.738,FigureTest,2022.2.4,74.38087203024789,
,0.9,,,Stimuli/CS+4.BMP,Stimuli/UCS4.BMP,Sound/laugh1.wav,,,,,,,,,,0,42,42,43,,,,,,,,,,,,,,,,,,,,,1260.4809003749979,1264.7245316250046,,,,,,,,,,,,,1253.4778678750008,1253.4778678750008,1259.4812656249997,1259.4812656249997,1259.4805667420064,,,,,,,,,2023_31_01_Shaoxun,001,2023-01-31_16h43.14.738,FigureTest,2022.2.4,74.38087203024789,
,0.9,,,Stimuli/CS+1.BMP,Stimuli/UCS1.BMP,Sound/scream1.wav,,,,,,,,,,0,43,43,7,,,,,,,,,,,,,,,,,,,,,1271.724400207997,1275.9009170000063,,,,,,,,,,,,,1264.7245316250046,1264.7245316250046,1270.7335972500005,1270.7335972500005,1270.738537692011,,,,,,,,,2023_31_01_Shaoxun,001,2023-01-31_16h43.14.738,FigureTest,2022.2.4,74.38087203024789,
,0.9,,,Stimuli/CS+1.BMP,Stimuli/UCS1.BMP,Sound/scream1.wav,,,,,,,,,,0,44,44,10,,,,,,,,,,,,,,,,,,,,,1282.9022399170062,1287.065172875009,,,,,,,,,,,,,1275.9009170000063,1275.9009170000063,1281.9041085000063,1281.9041085000063,1281.9025619500085,,,,,,,,,2023_31_01_Shaoxun,001,2023-01-31_16h43.14.738,FigureTest,2022.2.4,74.38087203024789,
,-0.1,Instructions_EN/ratingCS+1.png,Instructions_CN/ratingCS+1.png,,,,,,,,,,,,,,,,,0,0,0,0,,,,,,,,,,,,,,,,,,,1287.065172875009,1287.065172875009,1287.065172875009,None,None,7,4.547091542000999,,,,,,,,,,,,,,,,,,,2023_31_01_Shaoxun,001,2023-01-31_16h43.14.738,FigureTest,2022.2.4,74.38087203024789,
,0.4,Instructions_EN/ratingCS+3.png,Instructions_CN/ratingCS+3.png,,,,,,,,,,,,,,,,,0,1,1,1,,,,,,,,,,,,,,,,,,,1291.6608749169973,1291.6608749169973,1291.6608749169973,None,None,3,2.878675625004689,,,,,,,,,,,,,,,,,,,2023_31_01_Shaoxun,001,2023-01-31_16h43.14.738,FigureTest,2022.2.4,74.38087203024789,
,-0.1,Instructions_EN/ratingCS+4.png,Instructions_CN/ratingCS+4.png,,,,,,,,,,,,,,,,,0,2,2,2,,,,,,,,,,,,,,,,,,,1294.5803457500006,1294.5803457500006,1294.5803457500006,None,None,2,2.3994005830027163,,,,,,,,,,,,,,,,,,,2023_31_01_Shaoxun,001,2023-01-31_16h43.14.738,FigureTest,2022.2.4,74.38087203024789,
,,,,,,,,,,,,,,,,,,,,,,,,,,,,,,,,,,,,,,,,,,,,,,,,,,,,,,,,,,,1297.0184808750055,1297.0184808750055,1297.0184808750055,space,105.06771241599927,,,,2023_31_01_Shaoxun,001,2023-01-31_16h43.14.738,FigureTest,2022.2.4,74.38087203024789,
,0.4,,,,,,Stimuli/CS+1.BMP,,,,,,,,,,,,,,,,,0,0,0,14,,,,,,,,,,,,,1408.1656885420089,1412.2407882920088,,,,,,,,,,,,,,,,,,,,,,,1402.201118500001,1402.201118500001,,2023_31_01_Shaoxun,001,2023-01-31_16h43.14.738,FigureTest,2022.2.4,74.38087203024789,
,-0.1,,,,,,Stimuli/CS+3.BMP,,,,,,,,,,,,,,,,,0,1,1,5,,,,,,,,,,,,,1418.2363566669956,1422.576989542009,,,,,,,,,,,,,,,,,,,,,,,1412.2407882920088,1412.2407882920088,,2023_31_01_Shaoxun,001,2023-01-31_16h43.14.738,FigureTest,2022.2.4,74.38087203024789,
,-0.1,,,,,,Stimuli/CS+3.BMP,,,,,,,,,,,,,,,,,0,2,2,0,,,,,,,,,,,,,1428.5739984170068,1432.7011326670035,,,,,,,,,,,,,,,,,,,,,,,1422.576989542009,1422.576989542009,,2023_31_01_Shaoxun,001,2023-01-31_16h43.14.738,FigureTest,2022.2.4,74.38087203024789,
,0.4,,,,,,Stimuli/CS+1.BMP,,,,,,,,,,,,,,,,,0,3,3,11,,,,,,,,,,,,,1438.6977650420013,1442.7825870829984,,,,,,,,,,,,,,,,,,,,,,,1432.7011326670035,1432.7011326670035,,2023_31_01_Shaoxun,001,2023-01-31_16h43.14.738,FigureTest,2022.2.4,74.38087203024789,
,0.4,,,,,,Stimuli/CS+4.BMP,,,,,,,,,,,,,,,,,0,4,4,28,,,,,,,,,,,,,1448.7819944170042,1452.9324352080002,,,,,,,,,,,,,,,,,,,,,,,1442.7825870829984,1442.7825870829984,,2023_31_01_Shaoxun,001,2023-01-31_16h43.14.738,FigureTest,2022.2.4,74.38087203024789,
,-0.1,,,,,,Stimuli/CS+3.BMP,,,,,,,,,,,,,,,,,0,5,5,7,,,,,,,,,,,,,1458.9327167500014,1463.3239528749982,,,,,,,,,,,,,,,,,,,,,,,1452.9324352080002,1452.9324352080002,,2023_31_01_Shaoxun,001,2023-01-31_16h43.14.738,FigureTest,2022.2.4,74.38087203024789,
,0.4,,,,,,Stimuli/CS+1.BMP,,,,,,,,,,,,,,,,,0,6,6,19,,,,,,,,,,,,,1469.3238808330061,1473.5785479580081,,,,,,,,,,,,,,,,,,,,,,,1463.3239528749982,1463.3239528749982,,2023_31_01_Shaoxun,001,2023-01-31_16h43.14.738,FigureTest,2022.2.4,74.38087203024789,
,0.4,,,,,,Stimuli/CS+1.BMP,,,,,,,,,,,,,,,,,0,7,7,15,,,,,,,,,,,,,1479.580579417001,1483.7873267499963,,,,,,,,,,,,,,,,,,,,,,,1473.5785479580081,1473.5785479580081,,2023_31_01_Shaoxun,001,2023-01-31_16h43.14.738,FigureTest,2022.2.4,74.38087203024789,
,-0.1,,,,,,Stimuli/CS+3.BMP,,,,,,,,,,,,,,,,,0,8,8,3,,,,,,,,,,,,,1489.7847652920027,1493.9267708330008,,,,,,,,,,,,,,,,,,,,,,,1483.7873267499963,1483.7873267499963,,2023_31_01_Shaoxun,001,2023-01-31_16h43.14.738,FigureTest,2022.2.4,74.38087203024789,
,-0.1,,,,,,Stimuli/CS+3.BMP,,,,,,,,,,,,,,,,,0,9,9,4,,,,,,,,,,,,,1499.9226813330024,1504.1445127920015,,,,,,,,,,,,,,,,,,,,,,,1493.9267708330008,1493.9267708330008,,2023_31_01_Shaoxun,001,2023-01-31_16h43.14.738,FigureTest,2022.2.4,74.38087203024789,
,-0.1,,,,,,Stimuli/CS+3.BMP,,,,,,,,,,,,,,,,,0,10,10,1,,,,,,,,,,,,,1510.1401603330014,1514.4235278749984,,,,,,,,,,,,,,,,,,,,,,,1504.1445127920015,1504.1445127920015,,2023_31_01_Shaoxun,001,2023-01-31_16h43.14.738,FigureTest,2022.2.4,74.38087203024789,
,0.4,,,,,,Stimuli/CS+4.BMP,,,,,,,,,,,,,,,,,0,11,11,25,,,,,,,,,,,,,1520.424028458001,1524.7605352920073,,,,,,,,,,,,,,,,,,,,,,,1514.4235278749984,1514.4235278749984,,2023_31_01_Shaoxun,001,2023-01-31_16h43.14.738,FigureTest,2022.2.4,74.38087203024789,
,0.4,,,,,,Stimuli/CS+1.BMP,,,,,,,,,,,,,,,,,0,12,12,16,,,,,,,,,,,,,1530.7607828750042,1535.1713409170043,,,,,,,,,,,,,,,,,,,,,,,1524.7605352920073,1524.7605352920073,,2023_31_01_Shaoxun,001,2023-01-31_16h43.14.738,FigureTest,2022.2.4,74.38087203024789,
,0.4,,,,,,Stimuli/CS+4.BMP,,,,,,,,,,,,,,,,,0,13,13,22,,,,,,,,,,,,,1541.166097542009,1545.214112542002,,,,,,,,,,,,,,,,,,,,,,,1535.1713409170043,1535.1713409170043,,2023_31_01_Shaoxun,001,2023-01-31_16h43.14.738,FigureTest,2022.2.4,74.38087203024789,
,0.4,,,,,,Stimuli/CS+1.BMP,,,,,,,,,,,,,,,,,0,14,14,13,,,,,,,,,,,,,1551.2087290420022,1555.5233569999982,,,,,,,,,,,,,,,,,,,,,,,1545.214112542002,1545.214112542002,,2023_31_01_Shaoxun,001,2023-01-31_16h43.14.738,FigureTest,2022.2.4,74.38087203024789,
,0.4,,,,,,Stimuli/CS+4.BMP,,,,,,,,,,,,,,,,,0,15,15,27,,,,,,,,,,,,,1561.5208040419966,1565.6113542920066,,,,,,,,,,,,,,,,,,,,,,,1555.5233569999982,1555.5233569999982,,2023_31_01_Shaoxun,001,2023-01-31_16h43.14.738,FigureTest,2022.2.4,74.38087203024789,
,0.4,,,,,,Stimuli/CS+1.BMP,,,,,,,,,,,,,,,,,0,16,16,10,,,,,,,,,,,,,1571.6036083329964,1575.9957505000057,,,,,,,,,,,,,,,,,,,,,,,1565.6113542920066,1565.6113542920066,,2023_31_01_Shaoxun,001,2023-01-31_16h43.14.738,FigureTest,2022.2.4,74.38087203024789,
,0.4,,,,,,Stimuli/CS+4.BMP,,,,,,,,,,,,,,,,,0,17,17,21,,,,,,,,,,,,,1581.9948193750024,1586.1513304999971,,,,,,,,,,,,,,,,,,,,,,,1575.9957505000057,1575.9957505000057,,2023_31_01_Shaoxun,001,2023-01-31_16h43.14.738,FigureTest,2022.2.4,74.38087203024789,
,0.4,,,,,,Stimuli/CS+4.BMP,,,,,,,,,,,,,,,,,0,18,18,26,,,,,,,,,,,,,1592.1453301669972,1596.4179430420045,,,,,,,,,,,,,,,,,,,,,,,1586.1513304999971,1586.1513304999971,,2023_31_01_Shaoxun,001,2023-01-31_16h43.14.738,FigureTest,2022.2.4,74.38087203024789,
,0.4,,,,,,Stimuli/CS+4.BMP,,,,,,,,,,,,,,,,,0,19,19,29,,,,,,,,,,,,,1602.415858708002,1606.5586416250007,,,,,,,,,,,,,,,,,,,,,,,1596.4179430420045,1596.4179430420045,,2023_31_01_Shaoxun,001,2023-01-31_16h43.14.738,FigureTest,2022.2.4,74.38087203024789,
,-0.1,,,,,,Stimuli/CS+3.BMP,,,,,,,,,,,,,,,,,0,20,20,9,,,,,,,,,,,,,1612.5523855000065,1616.8783396250074,,,,,,,,,,,,,,,,,,,,,,,1606.5586416250007,1606.5586416250007,,2023_31_01_Shaoxun,001,2023-01-31_16h43.14.738,FigureTest,2022.2.4,74.38087203024789,
,-0.1,,,,,,Stimuli/CS+3.BMP,,,,,,,,,,,,,,,,,0,21,21,6,,,,,,,,,,,,,1622.8777074999962,1626.9706638750067,,,,,,,,,,,,,,,,,,,,,,,1616.8783396250074,1616.8783396250074,,2023_31_01_Shaoxun,001,2023-01-31_16h43.14.738,FigureTest,2022.2.4,74.38087203024789,
,0.4,,,,,,Stimuli/CS+1.BMP,,,,,,,,,,,,,,,,,0,22,22,18,,,,,,,,,,,,,1632.9612097920035,1637.2728848749975,,,,,,,,,,,,,,,,,,,,,,,1626.9706638750067,1626.9706638750067,,2023_31_01_Shaoxun,001,2023-01-31_16h43.14.738,FigureTest,2022.2.4,74.38087203024789,
,0.4,,,,,,Stimuli/CS+1.BMP,,,,,,,,,,,,,,,,,0,23,23,12,,,,,,,,,,,,,1643.271815583008,1647.3974108749971,,,,,,,,,,,,,,,,,,,,,,,1637.2728848749975,1637.2728848749975,,2023_31_01_Shaoxun,001,2023-01-31_16h43.14.738,FigureTest,2022.2.4,74.38087203024789,
,-0.1,,,,,,Stimuli/CS+3.BMP,,,,,,,,,,,,,,,,,0,24,24,2,,,,,,,,,,,,,1653.3956504170055,1657.5918521669955,,,,,,,,,,,,,,,,,,,,,,,1647.3974108749971,1647.3974108749971,,2023_31_01_Shaoxun,001,2023-01-31_16h43.14.738,FigureTest,2022.2.4,74.38087203024789,
,0.4,,,,,,Stimuli/CS+1.BMP,,,,,,,,,,,,,,,,,0,25,25,17,,,,,,,,,,,,,1663.586809750006,1667.6488380829978,,,,,,,,,,,,,,,,,,,,,,,1657.5918521669955,1657.5918521669955,,2023_31_01_Shaoxun,001,2023-01-31_16h43.14.738,FigureTest,2022.2.4,74.38087203024789,
,-0.1,,,,,,Stimuli/CS+3.BMP,,,,,,,,,,,,,,,,,0,26,26,8,,,,,,,,,,,,,1673.643800042002,1677.835421583004,,,,,,,,,,,,,,,,,,,,,,,1667.6488380829978,1667.6488380829978,,2023_31_01_Shaoxun,001,2023-01-31_16h43.14.738,FigureTest,2022.2.4,74.38087203024789,
,0.4,,,,,,Stimuli/CS+4.BMP,,,,,,,,,,,,,,,,,0,27,27,20,,,,,,,,,,,,,1683.835593833006,1688.0995833750057,,,,,,,,,,,,,,,,,,,,,,,1677.835421583004,1677.835421583004,,2023_31_01_Shaoxun,001,2023-01-31_16h43.14.738,FigureTest,2022.2.4,74.38087203024789,
,0.4,,,,,,Stimuli/CS+4.BMP,,,,,,,,,,,,,,,,,0,28,28,23,,,,,,,,,,,,,1694.0917425420048,1698.3381963749998,,,,,,,,,,,,,,,,,,,,,,,1688.0995833750057,1688.0995833750057,,2023_31_01_Shaoxun,001,2023-01-31_16h43.14.738,FigureTest,2022.2.4,74.38087203024789,
,0.4,,,,,,Stimuli/CS+4.BMP,,,,,,,,,,,,,,,,,0,29,29,24,,,,,,,,,,,,,1704.3365129580052,1708.526077625007,,,,,,,,,,,,,,,,,,,,,,,1698.3381963749998,1698.3381963749998,,2023_31_01_Shaoxun,001,2023-01-31_16h43.14.738,FigureTest,2022.2.4,74.38087203024789,
,-0.1,Instructions_EN/ratingCS+1.png,Instructions_CN/ratingCS+1.png,,,,,,,,,,,,,,,,,,,,,,,,,0,0,0,0,,,,,,,,,,,1708.526077625007,1708.526077625007,1708.526077625007,None,None,5,3.324069124995731,,,,,,,,,,,,,,,,,,,2023_31_01_Shaoxun,001,2023-01-31_16h43.14.738,FigureTest,2022.2.4,74.38087203024789,
,0.4,Instructions_EN/ratingCS+3.png,Instructions_CN/ratingCS+3.png,,,,,,,,,,,,,,,,,,,,,,,,,0,1,1,1,,,,,,,,,,,1712.0215685000003,1712.0215685000003,1712.0215685000003,None,None,3,2.1206000829988625,,,,,,,,,,,,,,,,,,,2023_31_01_Shaoxun,001,2023-01-31_16h43.14.738,FigureTest,2022.2.4,74.38087203024789,
,-0.1,Instructions_EN/ratingCS+4.png,Instructions_CN/ratingCS+4.png,,,,,,,,,,,,,,,,,,,,,,,,,0,2,2,2,,,,,,,,,,,1714.1908855000074,1714.1908855000074,1714.1908855000074,None,None,2,1.4545839579950552,,,,,,,,,,,,,,,,,,,2023_31_01_Shaoxun,001,2023-01-31_16h43.14.738,FigureTest,2022.2.4,74.38087203024789,
,,,,,,,,,,,,,,,,,,,,,,,,,,,,,,,,,,,,,,,,,,,,,,,,,,,,,,,,,,,,,,,,,,1715.877858250009,,,,,,,
