PreCondName,TrgCol,ratingName,CSName,UCSName,SoundName,ExtName,PreConditiong.thisRepN,PreConditiong.thisTrialN,PreConditiong.thisN,PreConditiong.thisIndex,Rating1.thisRepN,Rating1.thisTrialN,Rating1.thisN,Rating1.thisIndex,Conditioning.thisRepN,Conditioning.thisTrialN,Conditioning.thisN,Conditioning.thisIndex,Extinction.thisRepN,Extinction.thisTrialN,Extinction.thisN,Extinction.thisIndex,InstrBkg.started,InstrBkg.stopped,TagFig.started,TagFig.stopped,InstrKeyResp.keys,InstrKeyResp.rt,InstrKeyResp.started,InstrKeyResp.stopped,precondBkg.started,precondBkg.stopped,imagePreCond.started,imagePreCond.stopped,BlankBkg.started,BlankBkg.stopped,Bkg.started,Bkg.stopped,image.started,image.stopped,Scale.response,Scale.rt,Scale.started,Scale.stopped,InstrBkg2.started,InstrBkg2.stopped,TagFig2.started,TagFig2.stopped,key_resp.keys,key_resp.rt,key_resp.started,key_resp.stopped,CSBkg.started,CSBkg.stopped,CS_image.started,CS_image.stopped,UCSBkg.started,UCSBkg.stopped,UCS_image.started,UCS_image.stopped,sound_1.started,sound_1.stopped,BlankBkg2.started,BlankBkg2.stopped,InstrBkg3.started,InstrBkg3.stopped,TagFig3.started,TagFig3.stopped,key_resp_3.keys,key_resp_3.rt,key_resp_3.started,key_resp_3.stopped,ExtBkg.started,ExtBkg.stopped,Ext_image.started,Ext_image.stopped,ISIBkg.started,ISIBkg.stopped,InterSessInstrct.started,InterSessInstrct.stopped,key_resp_2.keys,key_resp_2.rt,key_resp_2.started,key_resp_2.stopped,participant,session,date,expName,psychopyVersion,frameRate,
,,,,,,,,,,,,,,,,,,,,,,,42.19903250000061,None,42.19903250000061,None,space,1.0007364000011876,42.19903250000061,None,,,,,,,,,,,,,,,,,,,,,,,,,,,,,,,,,,,,,,,,,,,,,,,,,,,,,,,aaaa,001,2021_Aug_05_1612,FigureTest,2021.2.1,59.893760447138675,
PreCondition\CS+.PNG,-0.1,,,,,,0,0,0,2,,,,,,,,,,,,,,,,,,,,,43.22772619999887,None,43.22772619999887,44.2243610000005,44.238502600001084,None,,,,,,,,,,,,,,,,,,,,,,,,,,,,,,,,,,,,,,,,,,,,,,,,,aaaa,001,2021_Aug_05_1612,FigureTest,2021.2.1,59.893760447138675,
PreCondition\CS+.PNG,-0.1,,,,,,0,1,1,1,,,,,,,,,,,,,,,,,,,,,46.32175709999865,None,46.32175709999865,47.30485079999926,47.32177159999992,None,,,,,,,,,,,,,,,,,,,,,,,,,,,,,,,,,,,,,,,,,,,,,,,,,aaaa,001,2021_Aug_05_1612,FigureTest,2021.2.1,59.893760447138675,
PreCondition\CS-.PNG,0.4,,,,,,0,2,2,6,,,,,,,,,,,,,,,,,,,,,49.437946300000476,None,49.437946300000476,50.42133100000137,50.43836720000036,None,,,,,,,,,,,,,,,,,,,,,,,,,,,,,,,,,,,,,,,,,,,,,,,,,aaaa,001,2021_Aug_05_1612,FigureTest,2021.2.1,59.893760447138675,
PreCondition\CS-.PNG,0.4,,,,,,0,3,3,5,,,,,,,,,,,,,,,,,,,,,52.61072799999965,None,52.61072799999965,53.60446299999967,53.621169300000474,None,,,,,,,,,,,,,,,,,,,,,,,,,,,,,,,,,,,,,,,,,,,,,,,,,aaaa,001,2021_Aug_05_1612,FigureTest,2021.2.1,59.893760447138675,
PreCondition\CS+.PNG,-0.1,,,,,,0,4,4,4,,,,,,,,,,,,,,,,,,,,,56.20419690000199,None,56.20419690000199,57.18989770000189,57.205289900000935,None,,,,,,,,,,,,,,,,,,,,,,,,,,,,,,,,,,,,,,,,,,,,,,,,,aaaa,001,2021_Aug_05_1612,FigureTest,2021.2.1,59.893760447138675,
PreCondition\CS-.PNG,0.4,,,,,,0,5,5,9,,,,,,,,,,,,,,,,,,,,,59.47087599999941,None,59.47087599999941,60.45370030000049,60.47071390000201,None,,,,,,,,,,,,,,,,,,,,,,,,,,,,,,,,,,,,,,,,,,,,,,,,,aaaa,001,2021_Aug_05_1612,FigureTest,2021.2.1,59.893760447138675,
PreCondition\CS+.PNG,-0.1,,,,,,0,6,6,3,,,,,,,,,,,,,,,,,,,,,62.54151280000224,None,62.54151280000224,63.536655100000644,63.553687499999796,None,,,,,,,,,,,,,,,,,,,,,,,,,,,,,,,,,,,,,,,,,,,,,,,,,aaaa,001,2021_Aug_05_1612,FigureTest,2021.2.1,59.893760447138675,
PreCondition\CS-.PNG,0.4,,,,,,0,7,7,7,,,,,,,,,,,,,,,,,,,,,65.92787949999911,None,65.92787949999911,66.92289480000181,66.93819129999974,None,,,,,,,,,,,,,,,,,,,,,,,,,,,,,,,,,,,,,,,,,,,,,,,,,aaaa,001,2021_Aug_05_1612,FigureTest,2021.2.1,59.893760447138675,
PreCondition\CS-.PNG,0.4,,,,,,0,8,8,8,,,,,,,,,,,,,,,,,,,,,69.23835640000107,None,69.23835640000107,70.21913889999996,70.25279380000211,None,,,,,,,,,,,,,,,,,,,,,,,,,,,,,,,,,,,,,,,,,,,,,,,,,aaaa,001,2021_Aug_05_1612,FigureTest,2021.2.1,59.893760447138675,
PreCondition\CS+.PNG,-0.1,,,,,,0,9,9,0,,,,,,,,,,,,,,,,,,,,,72.36885619999885,None,72.36885619999885,73.35350309999922,73.36912379999922,None,,,,,,,,,,,,,,,,,,,,,,,,,,,,,,,,,,,,,,,,,,,,,,,,,aaaa,001,2021_Aug_05_1612,FigureTest,2021.2.1,59.893760447138675,
,-0.1,PreCondition\ratingCS+.png,,,,,,,,,0,0,0,0,,,,,,,,,,,,,,,,,,,,,,,79.31703819999893,None,79.31703819999893,None,3.4921875,34.436576899999636,79.31703819999893,None,,,,,,,,,,,,,,,,,,,,,,,,,,,,,,,,,,,,,,,,,aaaa,001,2021_Aug_05_1612,FigureTest,2021.2.1,59.893760447138675,
,0.4,PreCondition\ratingCS-.png,,,,,,,,,0,1,1,1,,,,,,,,,,,,,,,,,,,,,,,114.79405110000152,None,114.79405110000152,None,4.609375,14.39970440000252,114.79405110000152,None,,,,,,,,,,,,,,,,,,,,,,,,,,,,,,,,,,,,,,,,,aaaa,001,2021_Aug_05_1612,FigureTest,2021.2.1,59.893760447138675,
,,,,,,,,,,,,,,,,,,,,,,,,,,,,,,,,,,,,,,,,,,,,,129.19378390000202,None,129.19378390000202,None,space,34.542010799999844,129.19378390000202,None,,,,,,,,,,,,,,,,,,,,,,,,,,,,,,,,,aaaa,001,2021_Aug_05_1612,FigureTest,2021.2.1,59.893760447138675,
,0,,Condition\CS+.PNG,Condition\black.PNG,Sound\silent.wav,,,,,,,,,,0,0,0,1,,,,,,,,,,,,,,,,,,,,,,,,,,,,,,,,,,,163.78221570000096,None,163.78221570000096,None,None,None,None,None,None,None,169.4175662000016,None,,,,,,,,,,,,,,,,,,,,,aaaa,001,2021_Aug_05_1612,FigureTest,2021.2.1,59.893760447138675,
,-0.1,,Condition\CS+.PNG,Condition\UCS.PNG,Sound\scream1.wav,,,,,,,,,,0,1,1,3,,,,,,,,,,,,,,,,,,,,,,,,,,,,,,,,,,,171.98763020000115,None,171.98763020000115,None,174.10333230000106,None,174.10333230000106,None,174.10070698000055,None,175.00036009999894,None,,,,,,,,,,,,,,,,,,,,,aaaa,001,2021_Aug_05_1612,FigureTest,2021.2.1,59.893760447138675,
,0,,Condition\CS+.PNG,Condition\black.PNG,Sound\silent.wav,,,,,,,,,,0,2,2,0,,,,,,,,,,,,,,,,,,,,,,,,,,,,,,,,,,,177.22559030000048,None,177.22559030000048,None,None,None,None,None,None,None,182.8828366000016,None,,,,,,,,,,,,,,,,,,,,,aaaa,001,2021_Aug_05_1612,FigureTest,2021.2.1,59.893760447138675,
,-0.1,,Condition\CS+.PNG,Condition\UCS.PNG,Sound\scream1.wav,,,,,,,,,,0,3,3,6,,,,,,,,,,,,,,,,,,,,,,,,,,,,,,,,,,,185.311845799999,None,185.311845799999,None,187.41433529999995,None,187.41433529999995,None,187.41064678000185,None,188.33568820000073,None,,,,,,,,,,,,,,,,,,,,,aaaa,001,2021_Aug_05_1612,FigureTest,2021.2.1,59.893760447138675,
,-0.1,,Condition\CS+.PNG,Condition\UCS.PNG,Sound\scream1.wav,,,,,,,,,,0,4,4,4,,,,,,,,,,,,,,,,,,,,,,,,,,,,,,,,,,,190.46105589999934,None,190.46105589999934,None,192.46159210000042,None,192.46159210000042,None,192.4617101400021,None,193.49262810000073,None,,,,,,,,,,,,,,,,,,,,,aaaa,001,2021_Aug_05_1612,FigureTest,2021.2.1,59.893760447138675,
,-0.1,,Condition\CS+.PNG,Condition\UCS.PNG,Sound\scream1.wav,,,,,,,,,,0,5,5,5,,,,,,,,,,,,,,,,,,,,,,,,,,,,,,,,,,,195.56327740000052,None,195.56327740000052,None,197.57759309999892,None,197.57759309999892,None,197.57915214000096,None,198.60228579999966,None,,,,,,,,,,,,,,,,,,,,,aaaa,001,2021_Aug_05_1612,FigureTest,2021.2.1,59.893760447138675,
,0.4,,Condition\CS-.PNG,Condition\black.PNG,Sound\silent.wav,,,,,,,,,,0,6,6,16,,,,,,,,,,,,,,,,,,,,,,,,,,,,,,,,,,,200.7769627000016,None,200.7769627000016,None,None,None,None,None,None,None,206.41795320000165,None,,,,,,,,,,,,,,,,,,,,,aaaa,001,2021_Aug_05_1612,FigureTest,2021.2.1,59.893760447138675,
,0.4,,Condition\CS-.PNG,Condition\black.PNG,Sound\silent.wav,,,,,,,,,,0,7,7,19,,,,,,,,,,,,,,,,,,,,,,,,,,,,,,,,,,,208.4709870000006,None,208.4709870000006,None,211.50607130000208,None,211.50607130000208,None,211.44424856000987,None,211.53835560000152,None,,,,,,,,,,,,,,,,,,,,,aaaa,001,2021_Aug_05_1612,FigureTest,2021.2.1,59.893760447138675,
,0.4,,Condition\CS-.PNG,Condition\black.PNG,Sound\silent.wav,,,,,,,,,,0,8,8,10,,,,,,,,,,,,,,,,,,,,,,,,,,,,,,,,,,,213.6918853999996,None,213.6918853999996,None,None,None,None,None,None,None,216.7660719000014,None,,,,,,,,,,,,,,,,,,,,,aaaa,001,2021_Aug_05_1612,FigureTest,2021.2.1,59.893760447138675,
,-0.1,,Condition\CS+.PNG,Condition\UCS.PNG,Sound\scream1.wav,,,,,,,,,,0,9,9,8,,,,,,,,,,,,,,,,,,,,,,,,,,,,,,,,,,,218.9371198000008,None,218.9371198000008,None,221.03700509999908,None,221.03700509999908,None,221.03581488000128,None,221.99361390000195,None,,,,,,,,,,,,,,,,,,,,,aaaa,001,2021_Aug_05_1612,FigureTest,2021.2.1,59.893760447138675,
,0.4,,Condition\CS-.PNG,Condition\black.PNG,Sound\silent.wav,,,,,,,,,,0,10,10,18,,,,,,,,,,,,,,,,,,,,,,,,,,,,,,,,,,,224.37402569999904,None,224.37402569999904,None,None,None,None,None,None,None,230.01436850000027,None,,,,,,,,,,,,,,,,,,,,,aaaa,001,2021_Aug_05_1612,FigureTest,2021.2.1,59.893760447138675,
,0.4,,Condition\CS-.PNG,Condition\black.PNG,Sound\silent.wav,,,,,,,,,,0,11,11,12,,,,,,,,,,,,,,,,,,,,,,,,,,,,,,,,,,,232.2490375999987,None,232.2490375999987,None,235.27366149999943,None,235.27366149999943,None,235.20935526001048,None,235.34002849999888,None,,,,,,,,,,,,,,,,,,,,,aaaa,001,2021_Aug_05_1612,FigureTest,2021.2.1,59.893760447138675,
,-0.1,,Condition\CS+.PNG,Condition\UCS.PNG,Sound\scream1.wav,,,,,,,,,,0,12,12,2,,,,,,,,,,,,,,,,,,,,,,,,,,,,,,,,,,,237.4774901000019,None,237.4774901000019,None,239.57194639999943,None,239.57194639999943,None,239.575979080001,None,240.503310600001,None,,,,,,,,,,,,,,,,,,,,,aaaa,001,2021_Aug_05_1612,FigureTest,2021.2.1,59.893760447138675,
,0.4,,Condition\CS-.PNG,Condition\black.PNG,Sound\silent.wav,,,,,,,,,,0,13,13,17,,,,,,,,,,,,,,,,,,,,,,,,,,,,,,,,,,,242.75824510000166,None,242.75824510000166,None,None,None,None,None,None,None,248.36484579999888,None,,,,,,,,,,,,,,,,,,,,,aaaa,001,2021_Aug_05_1612,FigureTest,2021.2.1,59.893760447138675,
,-0.1,,Condition\CS+.PNG,Condition\UCS.PNG,Sound\scream1.wav,,,,,,,,,,0,14,14,7,,,,,,,,,,,,,,,,,,,,,,,,,,,,,,,,,,,250.6192732999989,None,250.6192732999989,None,252.7422351999994,None,252.7422351999994,None,252.74775182000232,None,253.68092700000125,None,,,,,,,,,,,,,,,,,,,,,aaaa,001,2021_Aug_05_1612,FigureTest,2021.2.1,59.893760447138675,
,0.4,,Condition\CS-.PNG,Condition\black.PNG,Sound\silent.wav,,,,,,,,,,0,15,15,15,,,,,,,,,,,,,,,,,,,,,,,,,,,,,,,,,,,255.81134640000164,None,255.81134640000164,None,None,None,None,None,None,None,261.4251225000007,None,,,,,,,,,,,,,,,,,,,,,aaaa,001,2021_Aug_05_1612,FigureTest,2021.2.1,59.893760447138675,
,0.4,,Condition\CS-.PNG,Condition\black.PNG,Sound\silent.wav,,,,,,,,,,0,16,16,14,,,,,,,,,,,,,,,,,,,,,,,,,,,,,,,,,,,263.6879689999987,None,263.6879689999987,None,266.7073238000012,None,266.7073238000012,None,266.64668306001255,None,266.7638987999999,None,,,,,,,,,,,,,,,,,,,,,aaaa,001,2021_Aug_05_1612,FigureTest,2021.2.1,59.893760447138675,
,0.4,,Condition\CS-.PNG,Condition\black.PNG,Sound\silent.wav,,,,,,,,,,0,17,17,13,,,,,,,,,,,,,,,,,,,,,,,,,,,,,,,,,,,268.9809599,None,268.9809599,None,272.0189449999998,None,272.0189449999998,None,271.9568646000116,None,272.04044129999966,None,,,,,,,,,,,,,,,,,,,,,aaaa,001,2021_Aug_05_1612,FigureTest,2021.2.1,59.893760447138675,
,-0.1,,Condition\CS+.PNG,Condition\UCS.PNG,Sound\scream1.wav,,,,,,,,,,0,18,18,9,,,,,,,,,,,,,,,,,,,,,,,,,,,,,,,,,,,274.27464899999904,None,274.27464899999904,None,276.3766957000007,None,276.3766957000007,None,276.37483638000117,None,277.3363556000004,None,,,,,,,,,,,,,,,,,,,,,aaaa,001,2021_Aug_05_1612,FigureTest,2021.2.1,59.893760447138675,
,0.4,,Condition\CS-.PNG,Condition\black.PNG,Sound\silent.wav,,,,,,,,,,0,19,19,11,,,,,,,,,,,,,,,,,,,,,,,,,,,,,,,,,,,279.41278189999866,None,279.41278189999866,None,None,None,None,None,None,None,285.0139010999992,None,,,,,,,,,,,,,,,,,,,,,aaaa,001,2021_Aug_05_1612,FigureTest,2021.2.1,59.893760447138675,
,,,,,,,,,,,,,,,,,,,,,,,,,,,,,,,,,,,,,,,,,,,,,,,,,,,,,,,,,,,,,,,,,287.233731100001,None,287.233731100001,None,space,4.542777599999681,287.233731100001,None,,,,,,,,,,,,,aaaa,001,2021_Aug_05_1612,FigureTest,2021.2.1,59.893760447138675,
,-0.1,,,,,Extinction\CS+.PNG,,,,,,,,,,,,,0,0,0,2,,,,,,,,,,,,,293.7950797000012,None,,,,,,,,,,,,,,,,,,,,,,,,,,,,,,,,,,,,,291.7969582000005,None,291.7969582000005,None,,,,,,,,,aaaa,001,2021_Aug_05_1612,FigureTest,2021.2.1,59.893760447138675,
,0.4,,,,,Extinction\CS-.PNG,,,,,,,,,,,,,0,1,1,9,,,,,,,,,,,,,298.2267600000014,None,,,,,,,,,,,,,,,,,,,,,,,,,,,,,,,,,,,,,296.22754429999986,None,296.22754429999986,None,,,,,,,,,aaaa,001,2021_Aug_05_1612,FigureTest,2021.2.1,59.893760447138675,
,0.4,,,,,Extinction\CS-.PNG,,,,,,,,,,,,,0,2,2,7,,,,,,,,,,,,,302.4633199000018,None,,,,,,,,,,,,,,,,,,,,,,,,,,,,,,,,,,,,,300.46017980000033,None,300.46017980000033,None,,,,,,,,,aaaa,001,2021_Aug_05_1612,FigureTest,2021.2.1,59.893760447138675,
,0.4,,,,,Extinction\CS-.PNG,,,,,,,,,,,,,0,3,3,6,,,,,,,,,,,,,306.6603603000003,None,,,,,,,,,,,,,,,,,,,,,,,,,,,,,,,,,,,,,304.6600639999997,None,304.6600639999997,None,,,,,,,,,aaaa,001,2021_Aug_05_1612,FigureTest,2021.2.1,59.893760447138675,
,-0.1,,,,,Extinction\CS+.PNG,,,,,,,,,,,,,0,4,4,3,,,,,,,,,,,,,310.85917999999947,None,,,,,,,,,,,,,,,,,,,,,,,,,,,,,,,,,,,,,308.845118600002,None,308.845118600002,None,,,,,,,,,aaaa,001,2021_Aug_05_1612,FigureTest,2021.2.1,59.893760447138675,
,-0.1,,,,,Extinction\CS+.PNG,,,,,,,,,,,,,0,5,5,4,,,,,,,,,,,,,315.0753958999994,None,,,,,,,,,,,,,,,,,,,,,,,,,,,,,,,,,,,,,313.0763654000002,None,313.0763654000002,None,,,,,,,,,aaaa,001,2021_Aug_05_1612,FigureTest,2021.2.1,59.893760447138675,
,0.4,,,,,Extinction\CS-.PNG,,,,,,,,,,,,,0,6,6,8,,,,,,,,,,,,,319.2250967,None,,,,,,,,,,,,,,,,,,,,,,,,,,,,,,,,,,,,,317.2253235999997,None,317.2253235999997,None,,,,,,,,,aaaa,001,2021_Aug_05_1612,FigureTest,2021.2.1,59.893760447138675,
,-0.1,,,,,Extinction\CS+.PNG,,,,,,,,,,,,,0,7,7,1,,,,,,,,,,,,,323.5082844999997,None,,,,,,,,,,,,,,,,,,,,,,,,,,,,,,,,,,,,,321.49770759999956,None,321.49770759999956,None,,,,,,,,,aaaa,001,2021_Aug_05_1612,FigureTest,2021.2.1,59.893760447138675,
,-0.1,,,,,Extinction\CS+.PNG,,,,,,,,,,,,,0,8,8,0,,,,,,,,,,,,,327.64294249999875,None,,,,,,,,,,,,,,,,,,,,,,,,,,,,,,,,,,,,,325.64142580000043,None,325.64142580000043,None,,,,,,,,,aaaa,001,2021_Aug_05_1612,FigureTest,2021.2.1,59.893760447138675,
,0.4,,,,,Extinction\CS-.PNG,,,,,,,,,,,,,0,9,9,5,,,,,,,,,,,,,331.89228600000206,None,,,,,,,,,,,,,,,,,,,,,,,,,,,,,,,,,,,,,329.88998269999865,None,329.88998269999865,None,,,,,,,,,aaaa,001,2021_Aug_05_1612,FigureTest,2021.2.1,59.893760447138675,
,,,,,,,,,,,,,,,,,,,,,,,,,,,,,,,,,,,,,,,,,,,,,,,,,,,,,,,,,,,,,,,,,,,,,,,,,,,,,334.2761582999992,None,334.2761582999992,None,space,4.259744599999976,334.2761582999992,None,aaaa,001,2021_Aug_05_1612,FigureTest,2021.2.1,59.893760447138675,
