PicFileName,TrgCol,TrgCol2,CSName,UCSName,SoundName,PreConditiong.thisRepN,PreConditiong.thisTrialN,PreConditiong.thisN,PreConditiong.thisIndex,Conditioning.thisRepN,Conditioning.thisTrialN,Conditioning.thisN,Conditioning.thisIndex,InstrBkg.started,InstrBkg.stopped,TagFig.started,TagFig.stopped,InstrKeyResp.keys,InstrKeyResp.rt,InstrKeyResp.started,InstrKeyResp.stopped,precondBkg.started,precondBkg.stopped,imagePreCond.started,imagePreCond.stopped,BlankBkg.started,BlankBkg.stopped,InstrBkg2.started,InstrBkg2.stopped,TagFig2.started,TagFig2.stopped,key_resp.keys,key_resp.rt,key_resp.started,key_resp.stopped,CSBkg.started,CSBkg.stopped,CS_image.started,CS_image.stopped,UCSBkg.started,UCSBkg.stopped,UCS_image.started,UCS_image.stopped,sound_1.started,sound_1.stopped,BlankBkg2.started,BlankBkg2.stopped,participant,session,date,expName,psychopyVersion,frameRate,
,,,,,,,,,,,,,,47.8549280999996,None,47.8549280999996,None,space,1.9291646000001492,47.8549280999996,None,,,,,,,,,,,,,,,,,,,,,,,,,,,ddddd,001,2021_Aug_05_0010,FigureTest,2021.2.1,58.84107789806116,
PreCond1\CS-.PNG,0.4,0.1,,,,0,0,0,8,,,,,,,,,,,,,49.808708799999295,None,49.808708799999295,50.80022349999854,50.81731729999956,None,,,,,,,,,,,,,,,,,,,,,ddddd,001,2021_Aug_05_0010,FigureTest,2021.2.1,58.84107789806116,
PreCond1\CS+.PNG,-0.1,-0.1,,,,0,1,1,0,,,,,,,,,,,,,53.01743609999903,None,53.01743609999903,54.00059499999952,54.017423999999664,None,,,,,,,,,,,,,,,,,,,,,ddddd,001,2021_Aug_05_0010,FigureTest,2021.2.1,58.84107789806116,
PreCond1\CS+.PNG,-0.1,-0.1,,,,0,2,2,3,,,,,,,,,,,,,56.217104199999085,None,56.217104199999085,57.20007269999951,57.21711340000002,None,,,,,,,,,,,,,,,,,,,,,ddddd,001,2021_Aug_05_0010,FigureTest,2021.2.1,58.84107789806116,
PreCond1\CS-.PNG,0.4,0.1,,,,0,3,3,7,,,,,,,,,,,,,59.366797299999234,None,59.366797299999234,60.34990029999972,60.36633679999977,None,,,,,,,,,,,,,,,,,,,,,ddddd,001,2021_Aug_05_0010,FigureTest,2021.2.1,58.84107789806116,
PreCond1\CS+.PNG,-0.1,-0.1,,,,0,4,4,4,,,,,,,,,,,,,62.41589849999946,None,62.41589849999946,63.39932500000032,63.416231699999116,None,,,,,,,,,,,,,,,,,,,,,ddddd,001,2021_Aug_05_0010,FigureTest,2021.2.1,58.84107789806116,
PreCond1\CS+.PNG,-0.1,-0.1,,,,0,5,5,2,,,,,,,,,,,,,65.68248929999936,None,65.68248929999936,66.6653908999997,66.68230519999997,None,,,,,,,,,,,,,,,,,,,,,ddddd,001,2021_Aug_05_0010,FigureTest,2021.2.1,58.84107789806116,
PreCond1\CS-.PNG,0.4,0.1,,,,0,6,6,5,,,,,,,,,,,,,68.84911800000009,None,68.84911800000009,69.83274689999962,69.84849029999896,None,,,,,,,,,,,,,,,,,,,,,ddddd,001,2021_Aug_05_0010,FigureTest,2021.2.1,58.84107789806116,
PreCond1\CS-.PNG,0.4,0.1,,,,0,7,7,6,,,,,,,,,,,,,72.2320753999993,None,72.2320753999993,73.21570520000023,73.23177909999868,None,,,,,,,,,,,,,,,,,,,,,ddddd,001,2021_Aug_05_0010,FigureTest,2021.2.1,58.84107789806116,
PreCond1\CS-.PNG,0.4,0.1,,,,0,8,8,9,,,,,,,,,,,,,75.51452629999949,None,75.51452629999949,76.49827829999958,76.51578410000002,None,,,,,,,,,,,,,,,,,,,,,ddddd,001,2021_Aug_05_0010,FigureTest,2021.2.1,58.84107789806116,
PreCond1\CS+.PNG,-0.1,-0.1,,,,0,9,9,1,,,,,,,,,,,,,78.71466409999994,None,78.71466409999994,79.69806169999902,79.71431159999884,None,,,,,,,,,,,,,,,,,,,,,ddddd,001,2021_Aug_05_0010,FigureTest,2021.2.1,58.84107789806116,
,,,,,,,,,,,,,,,,,,,,,,,,,,,,81.88844189999872,None,81.88844189999872,None,space,45.718646600000284,81.88844189999872,None,,,,,,,,,,,,,ddddd,001,2021_Aug_05_0010,FigureTest,2021.2.1,58.84107789806116,
,0.4,0.1,Cond1\CS-.PNG,Cond1\UCS.PNG,Sound\2.wav,,,,,0,0,0,13,,,,,,,,,,,,,,,,,,,,,,,127.63107229999878,None,127.63107229999878,None,129.64264619999994,None,129.64264619999994,None,129.64251735999952,None,130.6583652999998,None,ddddd,001,2021_Aug_05_0010,FigureTest,2021.2.1,58.84107789806116,
,-0.1,-0.1,Cond1\CS+.PNG,Cond1\UCS.PNG,Sound\1.wav,,,,,0,1,1,2,,,,,,,,,,,,,,,,,,,,,,,132.77591579999898,None,132.77591579999898,None,134.7752634999997,135.77594229999886,134.7752634999997,135.77594229999886,134.77783475999914,None,135.82590530000016,None,ddddd,001,2021_Aug_05_0010,FigureTest,2021.2.1,58.84107789806116,
,-0.1,-0.1,Cond1\CS+.PNG,Cond1\UCS.PNG,Sound\1.wav,,,,,0,2,2,6,,,,,,,,,,,,,,,,,,,,,,,138.158887399999,None,138.158887399999,None,140.15808079999988,None,140.15808079999988,None,140.15826965999932,None,141.2261039999994,None,ddddd,001,2021_Aug_05_0010,FigureTest,2021.2.1,58.84107789806116,
,0.4,0.1,Cond1\CS-.PNG,Cond1\UCS.PNG,Sound\2.wav,,,,,0,3,3,10,,,,,,,,,,,,,,,,,,,,,,,143.5082786999992,None,143.5082786999992,None,145.5082397999995,None,145.5082397999995,None,145.50834666000029,None,146.56480589999956,None,ddddd,001,2021_Aug_05_0010,FigureTest,2021.2.1,58.84107789806116,
,0.4,0.1,Cond1\CS-.PNG,Cond1\UCS.PNG,Sound\2.wav,,,,,0,4,4,19,,,,,,,,,,,,,,,,,,,,,,,149.00754419999976,None,149.00754419999976,None,151.00734659999944,None,151.00734659999944,None,151.00723916000007,None,152.06169020000016,None,ddddd,001,2021_Aug_05_0010,FigureTest,2021.2.1,58.84107789806116,
,0.4,0.1,Cond1\CS-.PNG,Cond1\UCS.PNG,Sound\2.wav,,,,,0,5,5,17,,,,,,,,,,,,,,,,,,,,,,,154.39264179999918,None,154.39264179999918,None,156.40771080000013,None,156.40771080000013,None,156.40748975999978,None,157.40705819999857,None,ddddd,001,2021_Aug_05_0010,FigureTest,2021.2.1,58.84107789806116,
,0.4,0.1,Cond1\CS-.PNG,Cond1\UCS.PNG,Sound\2.wav,,,,,0,6,6,16,,,,,,,,,,,,,,,,,,,,,,,159.42865809999967,None,159.42865809999967,None,161.43970379999882,None,161.43970379999882,None,161.43986835999877,None,162.48455149999972,None,ddddd,001,2021_Aug_05_0010,FigureTest,2021.2.1,58.84107789806116,
,0.4,0.1,Cond1\CS-.PNG,Cond1\UCS.PNG,Sound\2.wav,,,,,0,7,7,11,,,,,,,,,,,,,,,,,,,,,,,164.57361059999857,None,164.57361059999857,None,166.58919590000005,None,166.58919590000005,None,166.58941756000004,None,167.64179199999853,None,ddddd,001,2021_Aug_05_0010,FigureTest,2021.2.1,58.84107789806116,
,0.4,0.1,Cond1\CS-.PNG,Cond1\UCS.PNG,Sound\2.wav,,,,,0,8,8,18,,,,,,,,,,,,,,,,,,,,,,,169.7888794999999,None,169.7888794999999,None,171.7887198999997,None,171.7887198999997,None,171.7886234599986,None,172.7949652999996,None,ddddd,001,2021_Aug_05_0010,FigureTest,2021.2.1,58.84107789806116,
,-0.1,-0.1,Cond1\CS+.PNG,Cond1\UCS.PNG,Sound\1.wav,,,,,0,9,9,5,,,,,,,,,,,,,,,,,,,,,,,174.98844569999892,None,174.98844569999892,None,176.9883692000003,None,176.9883692000003,None,176.98841375999964,None,177.99199769999905,None,ddddd,001,2021_Aug_05_0010,FigureTest,2021.2.1,58.84107789806116,
,-0.1,-0.1,Cond1\CS+.PNG,Cond1\UCS.PNG,Sound\1.wav,,,,,0,10,10,9,,,,,,,,,,,,,,,,,,,,,,,180.154867199999,None,180.154867199999,None,182.15459179999925,None,182.15459179999925,None,182.1548081599989,None,183.15412149999975,None,ddddd,001,2021_Aug_05_0010,FigureTest,2021.2.1,58.84107789806116,
,-0.1,-0.1,Cond1\CS+.PNG,Cond1\UCS.PNG,Sound\1.wav,,,,,0,11,11,4,,,,,,,,,,,,,,,,,,,,,,,185.27044269999897,None,185.27044269999897,None,187.27037829999972,None,187.27037829999972,None,187.27051835999865,None,188.33051069999965,None,ddddd,001,2021_Aug_05_0010,FigureTest,2021.2.1,58.84107789806116,
,-0.1,-0.1,Cond1\CS+.PNG,Cond1\UCS.PNG,Sound\1.wav,,,,,0,12,12,8,,,,,,,,,,,,,,,,,,,,,,,190.42098429999896,None,190.42098429999896,None,192.41966259999936,None,192.41966259999936,None,192.4207996599993,None,193.4955665999987,None,ddddd,001,2021_Aug_05_0010,FigureTest,2021.2.1,58.84107789806116,
,-0.1,-0.1,Cond1\CS+.PNG,Cond1\UCS.PNG,Sound\1.wav,,,,,0,13,13,7,,,,,,,,,,,,,,,,,,,,,,,195.75285599999916,None,195.75285599999916,None,197.75400139999874,None,197.75400139999874,None,197.75346565999953,198.75655819999884,198.76954920000026,None,ddddd,001,2021_Aug_05_0010,FigureTest,2021.2.1,58.84107789806116,
,0,0,Cond1\CS+.PNG,Cond1\blank.png,Sound\2.wav,,,,,0,14,14,1,,,,,,,,,,,,,,,,,,,,,,,200.78650079999898,None,200.78650079999898,None,None,None,None,None,None,None,206.43200029999934,None,ddddd,001,2021_Aug_05_0010,FigureTest,2021.2.1,58.84107789806116,
,0.4,0.1,Cond1\CS-.PNG,Cond1\UCS.PNG,Sound\2.wav,,,,,0,15,15,12,,,,,,,,,,,,,,,,,,,,,,,208.8661123999991,None,208.8661123999991,None,210.95896849999917,None,210.95896849999917,None,210.96544301999876,None,211.90126659999987,None,ddddd,001,2021_Aug_05_0010,FigureTest,2021.2.1,58.84107789806116,
,-0.1,-0.1,Cond1\CS+.PNG,Cond1\UCS.PNG,Sound\1.wav,,,,,0,16,16,3,,,,,,,,,,,,,,,,,,,,,,,214.02836190000016,None,214.02836190000016,None,216.02817799999866,None,216.02817799999866,None,216.02870346,None,217.03515139999945,None,ddddd,001,2021_Aug_05_0010,FigureTest,2021.2.1,58.84107789806116,
,0.4,0.1,Cond1\CS-.PNG,Cond1\UCS.PNG,Sound\2.wav,,,,,0,17,17,14,,,,,,,,,,,,,,,,,,,,,,,219.2282168999991,None,219.2282168999991,None,221.22790650000024,None,221.22790650000024,None,221.22780055999957,None,222.25182379999933,None,ddddd,001,2021_Aug_05_0010,FigureTest,2021.2.1,58.84107789806116,
,0.4,0.1,Cond1\CS-.PNG,Cond1\UCS.PNG,Sound\2.wav,,,,,0,18,18,15,,,,,,,,,,,,,,,,,,,,,,,224.34398689999944,None,224.34398689999944,None,226.34395739999854,None,226.34395739999854,None,226.34409585999984,None,227.42479639999874,None,ddddd,001,2021_Aug_05_0010,FigureTest,2021.2.1,58.84107789806116,
,,,,,,,,,,,,,,,,,,,,,,,,,,,,,,,,,,,,229.6959870999999,None,229.6959870999999,None,None,None,None,None,None,None,,,,,,,,,
