PreCondName,TrgCol,ratingName,CSName,UCSName,SoundName,ExtName,PreCond.thisRepN,PreCond.thisTrialN,PreCond.thisN,PreCond.thisIndex,RatingPreCond.thisRepN,RatingPreCond.thisTrialN,RatingPreCond.thisN,RatingPreCond.thisIndex,Cond.thisRepN,Cond.thisTrialN,Cond.thisN,Cond.thisIndex,RatingCond.thisRepN,RatingCond.thisTrialN,RatingCond.thisN,RatingCond.thisIndex,Extinction.thisRepN,Extinction.thisTrialN,Extinction.thisN,Extinction.thisIndex,RatingExt.thisRepN,RatingExt.thisTrialN,RatingExt.thisN,RatingExt.thisIndex,InstrBkg.started,TagFig.started,InstrKeyResp.started,InstrKeyResp.keys,InstrKeyResp.rt,precondBkg.started,imagePreCond.started,imagePreCond.stopped,BlankBkg.started,BlankBkg.stopped,Bkg.started,image.started,Scale.started,Scale.response,Scale.rt,fearRating.keys,fearRating.rt,InstrBkg2.started,TagFig2.started,key_resp.started,key_resp.keys,key_resp.rt,CSBkg.started,CS_image.started,UCSBkg.started,UCS_image.started,sound_1.started,CSBkg.stopped,CS_image.stopped,sound_1.stopped,InstrBkg3.started,TagFig3.started,key_resp_3.started,key_resp_3.keys,key_resp_3.rt,ExtBkg.started,Ext_image.started,EndTxt.started,participant,session,date,expName,psychopyVersion,frameRate,
,,,,,,,,,,,,,,,,,,,,,,,,,,,,,,,16.623608333000448,16.623608333000448,16.623608333000448,space,3.7167547080025543,,,,,,,,,,,,,,,,,,,,,,,,,,,,,,,,,,Demo,001,2022-12-14_05h50.47.314,FigureTest,2022.2.4,59.46861804093505,
Stimuli/CS+1.BMP,0.4,,,,,,0,0,0,8,,,,,,,,,,,,,,,,,,,,,,,,,,20.43467691699334,20.43467691699334,26.372671624994837,26.391584041994065,30.623353541988763,,,,,,,,,,,,,,,,,,,,,,,,,,,,,Demo,001,2022-12-14_05h50.47.314,FigureTest,2022.2.4,59.46861804093505,
Stimuli/CS+3.BMP,-0.1,,,,,,0,1,1,1,,,,,,,,,,,,,,,,,,,,,,,,,,30.623353541988763,30.623353541988763,36.58963174998644,36.621503207992646,41.09381287499855,,,,,,,,,,,,,,,,,,,,,,,,,,,,,Demo,001,2022-12-14_05h50.47.314,FigureTest,2022.2.4,59.46861804093505,
Stimuli/CS+1.BMP,0.4,,,,,,0,2,2,6,,,,,,,,,,,,,,,,,,,,,,,,,,41.09381287499855,41.09381287499855,47.05741974999546,47.07234279198747,51.26216683299572,,,,,,,,,,,,,,,,,,,,,,,,,,,,,Demo,001,2022-12-14_05h50.47.314,FigureTest,2022.2.4,59.46861804093505,
Stimuli/CS+3.BMP,-0.1,,,,,,0,3,3,2,,,,,,,,,,,,,,,,,,,,,,,,,,51.26216683299572,51.26216683299572,57.24085108299914,57.25535833298636,61.3458534579986,,,,,,,,,,,,,,,,,,,,,,,,,,,,,Demo,001,2022-12-14_05h50.47.314,FigureTest,2022.2.4,59.46861804093505,
Stimuli/CS+1.BMP,0.4,,,,,,0,4,4,7,,,,,,,,,,,,,,,,,,,,,,,,,,61.3458534579986,61.3458534579986,67.30555487499805,67.34042104199762,71.44221062499855,,,,,,,,,,,,,,,,,,,,,,,,,,,,,Demo,001,2022-12-14_05h50.47.314,FigureTest,2022.2.4,59.46861804093505,
Stimuli/CS+3.BMP,-0.1,,,,,,0,5,5,0,,,,,,,,,,,,,,,,,,,,,,,,,,71.44221062499855,71.44221062499855,77.40698212498683,77.42308329200023,81.8825629579951,,,,,,,,,,,,,,,,,,,,,,,,,,,,,Demo,001,2022-12-14_05h50.47.314,FigureTest,2022.2.4,59.46861804093505,
Stimuli/CS+4.BMP,0.4,,,,,,0,6,6,11,,,,,,,,,,,,,,,,,,,,,,,,,,81.8825629579951,81.8825629579951,87.8577052079927,87.87384449999081,91.97348829198745,,,,,,,,,,,,,,,,,,,,,,,,,,,,,Demo,001,2022-12-14_05h50.47.314,FigureTest,2022.2.4,59.46861804093505,
Stimuli/CS+4.BMP,0.4,,,,,,0,7,7,13,,,,,,,,,,,,,,,,,,,,,,,,,,91.97348829198745,91.97348829198745,97.94100358299329,97.9751085829921,102.29508554199128,,,,,,,,,,,,,,,,,,,,,,,,,,,,,Demo,001,2022-12-14_05h50.47.314,FigureTest,2022.2.4,59.46861804093505,
Stimuli/CS+3.BMP,-0.1,,,,,,0,8,8,3,,,,,,,,,,,,,,,,,,,,,,,,,,102.29508554199128,102.29508554199128,108.25787074999243,108.2918751249963,112.48679966699274,,,,,,,,,,,,,,,,,,,,,,,,,,,,,Demo,001,2022-12-14_05h50.47.314,FigureTest,2022.2.4,59.46861804093505,
Stimuli/CS+3.BMP,-0.1,,,,,,0,9,9,4,,,,,,,,,,,,,,,,,,,,,,,,,,112.48679966699274,112.48679966699274,118.4572152079927,118.4914202499931,122.57178874999227,,,,,,,,,,,,,,,,,,,,,,,,,,,,,Demo,001,2022-12-14_05h50.47.314,FigureTest,2022.2.4,59.46861804093505,
Stimuli/CS+1.BMP,0.4,,,,,,0,10,10,5,,,,,,,,,,,,,,,,,,,,,,,,,,122.57178874999227,122.57178874999227,128.5420193329919,128.55864608299453,132.9409626669949,,,,,,,,,,,,,,,,,,,,,,,,,,,,,Demo,001,2022-12-14_05h50.47.314,FigureTest,2022.2.4,59.46861804093505,
Stimuli/CS+4.BMP,0.4,,,,,,0,11,11,10,,,,,,,,,,,,,,,,,,,,,,,,,,132.9409626669949,132.9409626669949,138.9077581249876,138.9422302079911,143.11785662498733,,,,,,,,,,,,,,,,,,,,,,,,,,,,,Demo,001,2022-12-14_05h50.47.314,FigureTest,2022.2.4,59.46861804093505,
Stimuli/CS+4.BMP,0.4,,,,,,0,12,12,12,,,,,,,,,,,,,,,,,,,,,,,,,,143.11785662498733,143.11785662498733,149.0776304579922,149.09359333298926,153.39455816699774,,,,,,,,,,,,,,,,,,,,,,,,,,,,,Demo,001,2022-12-14_05h50.47.314,FigureTest,2022.2.4,59.46861804093505,
Stimuli/CS+1.BMP,0.4,,,,,,0,13,13,9,,,,,,,,,,,,,,,,,,,,,,,,,,153.39455816699774,153.39455816699774,159.37746112499735,159.39222616699408,163.6109964579955,,,,,,,,,,,,,,,,,,,,,,,,,,,,,Demo,001,2022-12-14_05h50.47.314,FigureTest,2022.2.4,59.46861804093505,
Stimuli/CS+4.BMP,0.4,,,,,,0,14,14,14,,,,,,,,,,,,,,,,,,,,,,,,,,163.6109964579955,163.6109964579955,,169.59190195798874,173.94822237499466,,,,,,,,,,,,,,,,,,,,,,,,,,,,,Demo,001,2022-12-14_05h50.47.314,FigureTest,2022.2.4,59.46861804093505,
,-0.1,Instructions_EN/ratingCS+1.png,,,,,,,,,0,0,0,0,,,,,,,,,,,,,,,,,,,,,,,,,,,173.94822237499466,173.94822237499466,173.94822237499466,None,None,5,5.268968626012793,,,,,,,,,,,,,,,,,,,,,,Demo,001,2022-12-14_05h50.47.314,FigureTest,2022.2.4,59.46861804093505,
,0.4,Instructions_EN/ratingCS+3.png,,,,,,,,,0,1,1,1,,,,,,,,,,,,,,,,,,,,,,,,,,,180.4106299579871,180.4106299579871,180.4106299579871,None,None,5,0.1464380420075031,,,,,,,,,,,,,,,,,,,,,,Demo,001,2022-12-14_05h50.47.314,FigureTest,2022.2.4,59.46861804093505,
,-0.1,Instructions_EN/ratingCS+4.png,,,,,,,,,0,2,2,2,,,,,,,,,,,,,,,,,,,,,,,,,,,180.63275979198806,180.63275979198806,180.63275979198806,None,None,5,1.4198129580181558,,,,,,,,,,,,,,,,,,,,,,Demo,001,2022-12-14_05h50.47.314,FigureTest,2022.2.4,59.46861804093505,
,,,,,,,,,,,,,,,,,,,,,,,,,,,,,,,,,,,,,,,,,,,,,,,,182.1182195829897,182.1182195829897,182.1182195829897,space,1.222763042023871,,,,,,,,,,,,,,,,,Demo,001,2022-12-14_05h50.47.314,FigureTest,2022.2.4,59.46861804093505,
,0.9,,Stimuli/CS+4.BMP,Stimuli/UCS4.BMP,Sound/laugh1.wav,,,,,,,,,,0,0,0,40,,,,,,,,,,,,,,,,,,,,,190.35952379199443,194.47113437499502,,,,,,,,,,,,,183.41762712498894,183.41762712498894,189.433664917,189.433664917,189.42800735839992,,,,,,,,,,,,Demo,001,2022-12-14_05h50.47.314,FigureTest,2022.2.4,59.46861804093505,
,0.4,,Stimuli/CS+3.BMP,Stimuli/black.PNG,Sound/silent.wav,,,,,,,,,,0,1,1,25,,,,,,,,,,,,,,,,,,,,,202.90083766699536,207.1782442919939,,,,,,,,,,,,,194.47113437499502,194.47113437499502,,,,,,,,,,,,,,,Demo,001,2022-12-14_05h50.47.314,FigureTest,2022.2.4,59.46861804093505,
,0.9,,Stimuli/CS+1.BMP,Stimuli/UCS1.BMP,Sound/scream1.wav,,,,,,,,,,0,2,2,4,,,,,,,,,,,,,,,,,,,,,214.17600370799482,218.41345295798965,,,,,,,,,,,,,207.1782442919939,207.1782442919939,213.30007216699596,213.30007216699596,213.2928830077988,,,,,,,,,,,,Demo,001,2022-12-14_05h50.47.314,FigureTest,2022.2.4,59.46861804093505,
,0.9,,Stimuli/CS+1.BMP,Stimuli/UCS1.BMP,Sound/scream1.wav,,,,,,,,,,0,3,3,7,,,,,,,,,,,,,,,,,,,,,225.42740479198983,229.5479224169976,,,,,,,,,,,,,218.41345295798965,218.41345295798965,224.427203291998,224.427203291998,224.42579620409523,,,,,,,,,,,,Demo,001,2022-12-14_05h50.47.314,FigureTest,2022.2.4,59.46861804093505,
,0.9,,Stimuli/CS+1.BMP,Stimuli/UCS1.BMP,Sound/scream1.wav,,,,,,,,,,0,4,4,10,,,,,,,,,,,,,,,,,,,,,236.5608390829875,240.97840662499948,,,,,,,,,,,,,229.5479224169976,229.5479224169976,235.56359704199713,235.56359704199713,235.56225337109353,,,,,,,,,,,,Demo,001,2022-12-14_05h50.47.314,FigureTest,2022.2.4,59.46861804093505,
,0.4,,Stimuli/CS+3.BMP,Stimuli/black.PNG,Sound/silent.wav,,,,,,,,,,0,5,5,27,,,,,,,,,,,,,,,,,,,,,249.0970544169977,253.44868637499167,,,,,,,,,,,,,240.97840662499948,240.97840662499948,,,,,,,,,,,,,,,Demo,001,2022-12-14_05h50.47.314,FigureTest,2022.2.4,59.46861804093505,
,-0.1,,Stimuli/CS+4.BMP,Stimuli/black.PNG,Sound/silent.wav,,,,,,,,,,0,6,6,30,,,,,,,,,,,,,,,,,,,,,261.49913374999596,265.56209379198845,,,,,,,,,,,,,253.44868637499167,253.44868637499167,,,,,,,,,,,,,,,Demo,001,2022-12-14_05h50.47.314,FigureTest,2022.2.4,59.46861804093505,
,0.9,,Stimuli/CS+4.BMP,Stimuli/UCS4.BMP,Sound/laugh1.wav,,,,,,,,,,0,7,7,42,,,,,,,,,,,,,,,,,,,,,272.5611863749946,276.9370536669885,,,,,,,,,,,,,265.56209379198845,265.56209379198845,271.6634382499906,271.6634382499906,271.6448118915956,,,,,,,,,,,,Demo,001,2022-12-14_05h50.47.314,FigureTest,2022.2.4,59.46861804093505,
,0.4,,Stimuli/CS+3.BMP,Stimuli/black.PNG,Sound/silent.wav,,,,,,,,,,0,8,8,28,,,,,,,,,,,,,,,,,,,,,284.96008024999173,289.15927004200057,,,,,,,,,,,,,276.9370536669885,276.9370536669885,,,,,,,,,,,,,,,Demo,001,2022-12-14_05h50.47.314,FigureTest,2022.2.4,59.46861804093505,
,0.9,,Stimuli/CS+1.BMP,Stimuli/UCS1.BMP,Sound/scream1.wav,,,,,,,,,,0,9,9,12,,,,,,,,,,,,,,,,,,,,,296.1627578329935,300.4110478329967,,,,,,,,,,,,,289.15927004200057,289.15927004200057,295.3104164999968,295.3104164999968,295.31294578710515,,,,,,,,,,,,Demo,001,2022-12-14_05h50.47.314,FigureTest,2022.2.4,59.46861804093505,
,0.4,,Stimuli/CS+3.BMP,Stimuli/black.PNG,Sound/silent.wav,,,,,,,,,,0,10,10,23,,,,,,,,,,,,,,,,,,,,,308.49211820799974,312.69890449999366,,,,,,,,,,,,,300.4110478329967,300.4110478329967,,,,,,,,,,,,,,,Demo,001,2022-12-14_05h50.47.314,FigureTest,2022.2.4,59.46861804093505,
,0.4,,Stimuli/CS+3.BMP,Stimuli/black.PNG,Sound/silent.wav,,,,,,,,,,0,11,11,21,,,,,,,,,,,,,,,,,,,,,320.67016037499707,324.91710012499243,,,,,,,,,,,,,312.69890449999366,312.69890449999366,,,,,,,,,,,,,,,Demo,001,2022-12-14_05h50.47.314,FigureTest,2022.2.4,59.46861804093505,
,0.4,,Stimuli/CS+3.BMP,Stimuli/black.PNG,Sound/silent.wav,,,,,,,,,,0,12,12,20,,,,,,,,,,,,,,,,,,,,,333.2967179579864,337.6795091669919,,,,,,,,,,,,,324.91710012499243,324.91710012499243,,,,,,,,,,,,,,,Demo,001,2022-12-14_05h50.47.314,FigureTest,2022.2.4,59.46861804093505,
,0.9,,Stimuli/CS+1.BMP,Stimuli/UCS1.BMP,Sound/scream1.wav,,,,,,,,,,0,13,13,8,,,,,,,,,,,,,,,,,,,,,344.6807552919927,348.8203231669904,,,,,,,,,,,,,337.6795091669919,337.6795091669919,343.77428433299065,343.77428433299065,343.7618735576049,,,,,,,,,,,,Demo,001,2022-12-14_05h50.47.314,FigureTest,2022.2.4,59.46861804093505,
,0.9,,Stimuli/CS+4.BMP,Stimuli/UCS4.BMP,Sound/laugh1.wav,,,,,,,,,,0,14,14,35,,,,,,,,,,,,,,,,,,,,,355.8302868749888,360.09052499999234,,,,,,,,,,,,,348.8203231669904,348.8203231669904,354.8383993749885,354.8383993749885,354.8321952870989,,,,,,,,,,,,Demo,001,2022-12-14_05h50.47.314,FigureTest,2022.2.4,59.46861804093505,
,-0.1,,Stimuli/CS+1.BMP,Stimuli/black.PNG,Sound/silent.wav,,,,,,,,,,0,15,15,0,,,,,,,,,,,,,,,,,,,,,368.1914425829891,372.2585533329984,,,,,,,,,,,,,360.09052499999234,360.09052499999234,,,,,,,,,,,,,,,Demo,001,2022-12-14_05h50.47.314,FigureTest,2022.2.4,59.46861804093505,
,0.9,,Stimuli/CS+1.BMP,Stimuli/UCS1.BMP,Sound/scream1.wav,,,,,,,,,,0,16,16,13,,,,,,,,,,,,,,,,,,,,,379.26398474999587,383.3535538750002,,,,,,,,,,,,,372.2585533329984,372.2585533329984,378.34534170798725,378.34534170798725,378.3466972666007,,,,,,,,,,,,Demo,001,2022-12-14_05h50.47.314,FigureTest,2022.2.4,59.46861804093505,
,0.4,,Stimuli/CS+3.BMP,Stimuli/black.PNG,Sound/silent.wav,,,,,,,,,,0,17,17,15,,,,,,,,,,,,,,,,,,,,,391.3848141669878,395.7296101249958,,,,,,,,,,,,,383.3535538750002,383.3535538750002,,,,,,,,,,,,,,,Demo,001,2022-12-14_05h50.47.314,FigureTest,2022.2.4,59.46861804093505,
,-0.1,,Stimuli/CS+1.BMP,Stimuli/black.PNG,Sound/silent.wav,,,,,,,,,,0,18,18,2,,,,,,,,,,,,,,,,,,,,,403.81185770798766,408.16029349999735,,,,,,,,,,,,,395.7296101249958,395.7296101249958,,,,,,,,,,,,,,,Demo,001,2022-12-14_05h50.47.314,FigureTest,2022.2.4,59.46861804093505,
,-0.1,,Stimuli/CS+4.BMP,Stimuli/black.PNG,Sound/silent.wav,,,,,,,,,,0,19,19,32,,,,,,,,,,,,,,,,,,,,,416.1901308749948,420.26424666699313,,,,,,,,,,,,,408.16029349999735,408.16029349999735,,,,,,,,,,,,,,,Demo,001,2022-12-14_05h50.47.314,FigureTest,2022.2.4,59.46861804093505,
,0.9,,Stimuli/CS+1.BMP,Stimuli/UCS1.BMP,Sound/scream1.wav,,,,,,,,,,0,20,20,5,,,,,,,,,,,,,,,,,,,,,427.2480493329931,431.6054057919973,,,,,,,,,,,,,420.26424666699313,420.26424666699313,426.38754604199494,426.38754604199494,426.3814623788989,,,,,,,,,,,,Demo,001,2022-12-14_05h50.47.314,FigureTest,2022.2.4,59.46861804093505,
,0.9,,Stimuli/CS+1.BMP,Stimuli/UCS1.BMP,Sound/scream1.wav,,,,,,,,,,0,21,21,11,,,,,,,,,,,,,,,,,,,,,438.61530266699265,443.1028113749926,,,,,,,,,,,,,431.6054057919973,431.6054057919973,437.6194959169952,437.6194959169952,437.61511103709347,,,,,,,,,,,,Demo,001,2022-12-14_05h50.47.314,FigureTest,2022.2.4,59.46861804093505,
,0.9,,Stimuli/CS+4.BMP,Stimuli/UCS4.BMP,Sound/laugh1.wav,,,,,,,,,,0,22,22,44,,,,,,,,,,,,,,,,,,,,,450.0992686249956,454.49995954199403,,,,,,,,,,,,,443.1028113749926,443.1028113749926,449.12077558299643,449.12077558299643,449.11519591209947,,,,,,,,,,,,Demo,001,2022-12-14_05h50.47.314,FigureTest,2022.2.4,59.46861804093505,
,0.9,,Stimuli/CS+4.BMP,Stimuli/UCS4.BMP,Sound/laugh1.wav,,,,,,,,,,0,23,23,33,,,,,,,,,,,,,,,,,,,,,461.51575608299754,465.8534011669981,,,,,,,,,,,,,454.49995954199403,454.49995954199403,460.5046056249994,460.5046056249994,460.49905049609663,460.5046056249994,460.5046056249994,461.5003892079985,,,,,,,,,Demo,001,2022-12-14_05h50.47.314,FigureTest,2022.2.4,59.46861804093505,
,0.4,,Stimuli/CS+3.BMP,Stimuli/black.PNG,Sound/silent.wav,,,,,,,,,,0,24,24,19,,,,,,,,,,,,,,,,,,,,,473.99785270799475,478.2635912919941,,,,,,,,,,,,,465.8534011669981,465.8534011669981,,,,,,,,,,,,,,,Demo,001,2022-12-14_05h50.47.314,FigureTest,2022.2.4,59.46861804093505,
,0.9,,Stimuli/CS+4.BMP,Stimuli/UCS4.BMP,Sound/laugh1.wav,,,,,,,,,,0,25,25,38,,,,,,,,,,,,,,,,,,,,,485.2665019579872,489.65688712499104,,,,,,,,,,,,,478.2635912919941,478.2635912919941,484.4043112079962,484.4043112079962,484.3982787118934,,,,,,,,,,,,Demo,001,2022-12-14_05h50.47.314,FigureTest,2022.2.4,59.46861804093505,
,-0.1,,Stimuli/CS+1.BMP,Stimuli/black.PNG,Sound/silent.wav,,,,,,,,,,0,26,26,1,,,,,,,,,,,,,,,,,,,,,497.6829173749866,501.8405664169986,,,,,,,,,,,,,489.65688712499104,489.65688712499104,,,,,,,,,,,,,,,Demo,001,2022-12-14_05h50.47.314,FigureTest,2022.2.4,59.46861804093505,
,0.9,,Stimuli/CS+1.BMP,Stimuli/UCS1.BMP,Sound/scream1.wav,,,,,,,,,,0,27,27,9,,,,,,,,,,,,,,,,,,,,,508.85018099998706,513.0715251249931,,,,,,,,,,,,,501.8405664169986,501.8405664169986,507.9456554169883,507.9456554169883,507.93459609959393,,,,,,,,,,,,Demo,001,2022-12-14_05h50.47.314,FigureTest,2022.2.4,59.46861804093505,
,0.4,,Stimuli/CS+3.BMP,Stimuli/black.PNG,Sound/silent.wav,,,,,,,,,,0,28,28,26,,,,,,,,,,,,,,,,,,,,,521.0200174999918,525.1093354999903,,,,,,,,,,,,,513.0715251249931,513.0715251249931,,,,,,,,,,,,,,,Demo,001,2022-12-14_05h50.47.314,FigureTest,2022.2.4,59.46861804093505,
,0.9,,Stimuli/CS+4.BMP,Stimuli/UCS4.BMP,Sound/laugh1.wav,,,,,,,,,,0,29,29,36,,,,,,,,,,,,,,,,,,,,,532.100893625,536.4480698749976,,,,,,,,,,,,,525.1093354999903,525.1093354999903,531.1901697499998,531.1901697499998,531.1843187245919,,,,,,,,,,,,Demo,001,2022-12-14_05h50.47.314,FigureTest,2022.2.4,59.46861804093505,
,0.9,,Stimuli/CS+4.BMP,Stimuli/UCS4.BMP,Sound/laugh1.wav,,,,,,,,,,0,30,30,34,,,,,,,,,,,,,,,,,,,,,543.4179101249902,547.5570463329932,,,,,,,,,,,,,536.4480698749976,536.4480698749976,542.455422125,542.455422125,542.4515325331915,,,,,,,,,,,,Demo,001,2022-12-14_05h50.47.314,FigureTest,2022.2.4,59.46861804093505,
,0.9,,Stimuli/CS+4.BMP,Stimuli/UCS4.BMP,Sound/laugh1.wav,,,,,,,,,,0,31,31,37,,,,,,,,,,,,,,,,,,,,,554.5686045829934,558.8946267499996,,,,,,,,,,,,,547.5570463329932,547.5570463329932,553.5790877079999,553.5790877079999,553.5837797831948,,,,,,,,,,,,Demo,001,2022-12-14_05h50.47.314,FigureTest,2022.2.4,59.46861804093505,
,0.4,,Stimuli/CS+3.BMP,Stimuli/black.PNG,Sound/silent.wav,,,,,,,,,,0,32,32,16,,,,,,,,,,,,,,,,,,,,,566.9569573329936,571.2065496249998,,,,,,,,,,,,,558.8946267499996,558.8946267499996,,,,,,,,,,,,,,,Demo,001,2022-12-14_05h50.47.314,FigureTest,2022.2.4,59.46861804093505,
,0.4,,Stimuli/CS+3.BMP,Stimuli/black.PNG,Sound/silent.wav,,,,,,,,,,0,33,33,29,,,,,,,,,,,,,,,,,,,,,579.3362732499954,583.7519227079902,,,,,,,,,,,,,571.2065496249998,571.2065496249998,,,,,,,,,,,,,,,Demo,001,2022-12-14_05h50.47.314,FigureTest,2022.2.4,59.46861804093505,
,0.9,,Stimuli/CS+4.BMP,Stimuli/UCS4.BMP,Sound/laugh1.wav,,,,,,,,,,0,34,34,43,,,,,,,,,,,,,,,,,,,,,590.7358452499902,594.7872612079955,,,,,,,,,,,,,583.7519227079902,583.7519227079902,589.8228790419962,589.8228790419962,589.8023333954916,,,,,,,,,,,,Demo,001,2022-12-14_05h50.47.314,FigureTest,2022.2.4,59.46861804093505,
,0.9,,Stimuli/CS+4.BMP,Stimuli/UCS4.BMP,Sound/laugh1.wav,,,,,,,,,,0,35,35,41,,,,,,,,,,,,,,,,,,,,,601.7854363749939,605.9681030829961,,,,,,,,,,,,,594.7872612079955,594.7872612079955,600.8145359169866,600.8145359169866,600.8186101122964,,,,,,,,,,,,Demo,001,2022-12-14_05h50.47.314,FigureTest,2022.2.4,59.46861804093505,
,0.9,,Stimuli/CS+4.BMP,Stimuli/UCS4.BMP,Sound/laugh1.wav,,,,,,,,,,0,36,36,39,,,,,,,,,,,,,,,,,,,,,612.9693101669982,617.0102314169926,,,,,,,,,,,,,605.9681030829961,605.9681030829961,611.9851702499873,611.9851702499873,611.9864641581983,,,,,,,,,,,,Demo,001,2022-12-14_05h50.47.314,FigureTest,2022.2.4,59.46861804093505,
,0.4,,Stimuli/CS+3.BMP,Stimuli/black.PNG,Sound/silent.wav,,,,,,,,,,0,37,37,17,,,,,,,,,,,,,,,,,,,,,625.15823666699,629.4682061249914,,,,,,,,,,,,,617.0102314169926,617.0102314169926,,,,,,,,,,,,,,,Demo,001,2022-12-14_05h50.47.314,FigureTest,2022.2.4,59.46861804093505,
,-0.1,,Stimuli/CS+4.BMP,Stimuli/black.PNG,Sound/silent.wav,,,,,,,,,,0,38,38,31,,,,,,,,,,,,,,,,,,,,,637.5706089999876,641.814756916996,,,,,,,,,,,,,629.4682061249914,629.4682061249914,,,,,,,,,,,,,,,Demo,001,2022-12-14_05h50.47.314,FigureTest,2022.2.4,59.46861804093505,
,0.4,,Stimuli/CS+3.BMP,Stimuli/black.PNG,Sound/silent.wav,,,,,,,,,,0,39,39,18,,,,,,,,,,,,,,,,,,,,,649.8757892499998,654.2494069579989,,,,,,,,,,,,,641.814756916996,641.814756916996,,,,,,,,,,,,,,,Demo,001,2022-12-14_05h50.47.314,FigureTest,2022.2.4,59.46861804093505,
,0.9,,Stimuli/CS+1.BMP,Stimuli/UCS1.BMP,Sound/scream1.wav,,,,,,,,,,0,40,40,3,,,,,,,,,,,,,,,,,,,,,661.2532632079965,665.360515458,,,,,,,,,,,,,654.2494069579989,654.2494069579989,660.3895208329923,660.3895208329923,660.3866305039031,,,,,,,,,,,,Demo,001,2022-12-14_05h50.47.314,FigureTest,2022.2.4,59.46861804093505,
,0.9,,Stimuli/CS+1.BMP,Stimuli/UCS1.BMP,Sound/scream1.wav,,,,,,,,,,0,41,41,6,,,,,,,,,,,,,,,,,,,,,672.3534331249975,676.511747749988,,,,,,,,,,,,,665.360515458,665.360515458,671.3713077919965,671.3713077919965,671.3705625790986,,,,,,,,,,,,Demo,001,2022-12-14_05h50.47.314,FigureTest,2022.2.4,59.46861804093505,
,0.4,,Stimuli/CS+3.BMP,Stimuli/black.PNG,Sound/silent.wav,,,,,,,,,,0,42,42,24,,,,,,,,,,,,,,,,,,,,,684.6249536249961,689.0210542079876,,,,,,,,,,,,,676.511747749988,676.511747749988,,,,,,,,,,,,,,,Demo,001,2022-12-14_05h50.47.314,FigureTest,2022.2.4,59.46861804093505,
,0.9,,Stimuli/CS+1.BMP,Stimuli/UCS1.BMP,Sound/scream1.wav,,,,,,,,,,0,43,43,14,,,,,,,,,,,,,,,,,,,,,696.0200372919935,700.2237992499868,,,,,,,,,,,,,689.0210542079876,689.0210542079876,695.1342070829996,695.1342070829996,695.1230047206948,,,,,,,,,,,,Demo,001,2022-12-14_05h50.47.314,FigureTest,2022.2.4,59.46861804093505,
,0.4,,Stimuli/CS+3.BMP,Stimuli/black.PNG,Sound/silent.wav,,,,,,,,,,0,44,44,22,,,,,,,,,,,,,,,,,,,,,708.217831832997,712.4026078329916,,,,,,,,,,,,,700.2237992499868,700.2237992499868,,,,,,,,,,,,,,,Demo,001,2022-12-14_05h50.47.314,FigureTest,2022.2.4,59.46861804093505,
,-0.1,Instructions_EN/ratingCS+1.png,,,,,,,,,,,,,,,,,0,0,0,0,,,,,,,,,,,,,,,,,,,712.4026078329916,712.4026078329916,712.4026078329916,None,None,5,5.829802667009062,,,,,,,,,,,,,,,,,,,,,,Demo,001,2022-12-14_05h50.47.314,FigureTest,2022.2.4,59.46861804093505,
,0.4,Instructions_EN/ratingCS+3.png,,,,,,,,,,,,,,,,,0,1,1,1,,,,,,,,,,,,,,,,,,,718.379867124997,718.379867124997,718.379867124997,None,None,6,1.4427349170146044,,,,,,,,,,,,,,,,,,,,,,Demo,001,2022-12-14_05h50.47.314,FigureTest,2022.2.4,59.46861804093505,
,-0.1,Instructions_EN/ratingCS+4.png,,,,,,,,,,,,,,,,,0,2,2,2,,,,,,,,,,,,,,,,,,,719.8781180829974,719.8781180829974,719.8781180829974,None,None,7,2.013843792010448,,,,,,,,,,,,,,,,,,,,,,Demo,001,2022-12-14_05h50.47.314,FigureTest,2022.2.4,59.46861804093505,
,,,,,,,,,,,,,,,,,,,,,,,,,,,,,,,,,,,,,,,,,,,,,,,,,,,,,,,,,,,,,721.9399791670003,721.9399791670003,721.9399791670003,space,4.314529917013715,,,,Demo,001,2022-12-14_05h50.47.314,FigureTest,2022.2.4,59.46861804093505,
,0.4,,,,,Stimuli/CS+4.BMP,,,,,,,,,,,,,,,,,0,0,0,29,,,,,,,,,,,,,732.2899562499952,736.6246029579925,,,,,,,,,,,,,,,,,,,,,,,,,,726.3295894579933,726.3295894579933,,Demo,001,2022-12-14_05h50.47.314,FigureTest,2022.2.4,59.46861804093505,
,0.4,,,,,Stimuli/CS+4.BMP,,,,,,,,,,,,,,,,,0,1,1,27,,,,,,,,,,,,,742.6399651669926,746.9658573329943,,,,,,,,,,,,,,,,,,,,,,,,,,736.6246029579925,736.6246029579925,,Demo,001,2022-12-14_05h50.47.314,FigureTest,2022.2.4,59.46861804093505,
,0.4,,,,,Stimuli/CS+4.BMP,,,,,,,,,,,,,,,,,0,2,2,28,,,,,,,,,,,,,752.9560463329981,757.3184255829983,,,,,,,,,,,,,,,,,,,,,,,,,,746.9658573329943,746.9658573329943,,Demo,001,2022-12-14_05h50.47.314,FigureTest,2022.2.4,59.46861804093505,
,0.4,,,,,Stimuli/CS+1.BMP,,,,,,,,,,,,,,,,,0,3,3,19,,,,,,,,,,,,,763.3056308749947,767.502691207992,,,,,,,,,,,,,,,,,,,,,,,,,,757.3184255829983,757.3184255829983,,Demo,001,2022-12-14_05h50.47.314,FigureTest,2022.2.4,59.46861804093505,
,-0.1,,,,,Stimuli/CS+3.BMP,,,,,,,,,,,,,,,,,0,4,4,8,,,,,,,,,,,,,773.5054522919963,777.777484374994,,,,,,,,,,,,,,,,,,,,,,,,,,767.502691207992,767.502691207992,,Demo,001,2022-12-14_05h50.47.314,FigureTest,2022.2.4,59.46861804093505,
,0.4,,,,,Stimuli/CS+4.BMP,,,,,,,,,,,,,,,,,0,5,5,23,,,,,,,,,,,,,783.7731275419937,787.8633582919865,,,,,,,,,,,,,,,,,,,,,,,,,,777.777484374994,777.777484374994,,Demo,001,2022-12-14_05h50.47.314,FigureTest,2022.2.4,59.46861804093505,
,0.4,,,,,Stimuli/CS+4.BMP,,,,,,,,,,,,,,,,,0,6,6,24,,,,,,,,,,,,,793.8567812919937,798.1854435829882,,,,,,,,,,,,,,,,,,,,,,,,,,787.8633582919865,787.8633582919865,,Demo,001,2022-12-14_05h50.47.314,FigureTest,2022.2.4,59.46861804093505,
,-0.1,,,,,Stimuli/CS+3.BMP,,,,,,,,,,,,,,,,,0,7,7,4,,,,,,,,,,,,,804.1907437919872,808.437171832993,,,,,,,,,,,,,,,,,,,,,,,,,,798.1854435829882,798.1854435829882,,Demo,001,2022-12-14_05h50.47.314,FigureTest,2022.2.4,59.46861804093505,
,-0.1,,,,,Stimuli/CS+3.BMP,,,,,,,,,,,,,,,,,0,8,8,2,,,,,,,,,,,,,814.4241264579905,818.6170409169863,,,,,,,,,,,,,,,,,,,,,,,,,,808.437171832993,808.437171832993,,Demo,001,2022-12-14_05h50.47.314,FigureTest,2022.2.4,59.46861804093505,
,-0.1,,,,,Stimuli/CS+3.BMP,,,,,,,,,,,,,,,,,0,9,9,5,,,,,,,,,,,,,824.6246443749988,828.8461079169938,,,,,,,,,,,,,,,,,,,,,,,,,,818.6170409169863,818.6170409169863,,Demo,001,2022-12-14_05h50.47.314,FigureTest,2022.2.4,59.46861804093505,
,0.4,,,,,Stimuli/CS+1.BMP,,,,,,,,,,,,,,,,,0,10,10,14,,,,,,,,,,,,,834.8571456669888,839.0519639169943,,,,,,,,,,,,,,,,,,,,,,,,,,828.8461079169938,828.8461079169938,,Demo,001,2022-12-14_05h50.47.314,FigureTest,2022.2.4,59.46861804093505,
,0.4,,,,,Stimuli/CS+4.BMP,,,,,,,,,,,,,,,,,0,11,11,26,,,,,,,,,,,,,845.0240288329951,849.2921417499892,,,,,,,,,,,,,,,,,,,,,,,,,,839.0519639169943,839.0519639169943,,Demo,001,2022-12-14_05h50.47.314,FigureTest,2022.2.4,59.46861804093505,
,-0.1,,,,,Stimuli/CS+3.BMP,,,,,,,,,,,,,,,,,0,12,12,0,,,,,,,,,,,,,855.2751630419953,859.3585939169861,,,,,,,,,,,,,,,,,,,,,,,,,,849.2921417499892,849.2921417499892,,Demo,001,2022-12-14_05h50.47.314,FigureTest,2022.2.4,59.46861804093505,
,0.4,,,,,Stimuli/CS+1.BMP,,,,,,,,,,,,,,,,,0,13,13,12,,,,,,,,,,,,,865.3409447499871,869.6816757919878,,,,,,,,,,,,,,,,,,,,,,,,,,859.3585939169861,859.3585939169861,,Demo,001,2022-12-14_05h50.47.314,FigureTest,2022.2.4,59.46861804093505,
,0.4,,,,,Stimuli/CS+4.BMP,,,,,,,,,,,,,,,,,0,14,14,25,,,,,,,,,,,,,875.6921152079885,879.948178791994,,,,,,,,,,,,,,,,,,,,,,,,,,869.6816757919878,869.6816757919878,,Demo,001,2022-12-14_05h50.47.314,FigureTest,2022.2.4,59.46861804093505,
,-0.1,,,,,Stimuli/CS+3.BMP,,,,,,,,,,,,,,,,,0,15,15,9,,,,,,,,,,,,,885.9442241669894,890.5134287499968,,,,,,,,,,,,,,,,,,,,,,,,,,879.948178791994,879.948178791994,,Demo,001,2022-12-14_05h50.47.314,FigureTest,2022.2.4,59.46861804093505,
,0.4,,,,,Stimuli/CS+1.BMP,,,,,,,,,,,,,,,,,0,16,16,10,,,,,,,,,,,,,896.5262126669986,900.7254977079865,,,,,,,,,,,,,,,,,,,,,,,,,,890.5134287499968,890.5134287499968,,Demo,001,2022-12-14_05h50.47.314,FigureTest,2022.2.4,59.46861804093505,
,0.4,,,,,Stimuli/CS+4.BMP,,,,,,,,,,,,,,,,,0,17,17,21,,,,,,,,,,,,,906.7115930829896,910.9119158329995,,,,,,,,,,,,,,,,,,,,,,,,,,900.7254977079865,900.7254977079865,,Demo,001,2022-12-14_05h50.47.314,FigureTest,2022.2.4,59.46861804093505,
,0.4,,,,,Stimuli/CS+1.BMP,,,,,,,,,,,,,,,,,0,18,18,16,,,,,,,,,,,,,916.9119687919883,921.0978167079884,,,,,,,,,,,,,,,,,,,,,,,,,,910.9119158329995,910.9119158329995,,Demo,001,2022-12-14_05h50.47.314,FigureTest,2022.2.4,59.46861804093505,
,0.4,,,,,Stimuli/CS+1.BMP,,,,,,,,,,,,,,,,,0,19,19,18,,,,,,,,,,,,,927.0925361669943,931.4424808329932,,,,,,,,,,,,,,,,,,,,,,,,,,921.0978167079884,921.0978167079884,,Demo,001,2022-12-14_05h50.47.314,FigureTest,2022.2.4,59.46861804093505,
,-0.1,,,,,Stimuli/CS+3.BMP,,,,,,,,,,,,,,,,,0,20,20,1,,,,,,,,,,,,,937.443944832994,941.5803738329996,,,,,,,,,,,,,,,,,,,,,,,,,,931.4424808329932,931.4424808329932,,Demo,001,2022-12-14_05h50.47.314,FigureTest,2022.2.4,59.46861804093505,
,0.4,,,,,Stimuli/CS+1.BMP,,,,,,,,,,,,,,,,,0,21,21,13,,,,,,,,,,,,,947.5941860829917,951.8807819999929,,,,,,,,,,,,,,,,,,,,,,,,,,941.5803738329996,941.5803738329996,,Demo,001,2022-12-14_05h50.47.314,FigureTest,2022.2.4,59.46861804093505,
,0.4,,,,,Stimuli/CS+1.BMP,,,,,,,,,,,,,,,,,0,22,22,15,,,,,,,,,,,,,957.8765454169916,962.1281298329995,,,,,,,,,,,,,,,,,,,,,,,,,,951.8807819999929,951.8807819999929,,Demo,001,2022-12-14_05h50.47.314,FigureTest,2022.2.4,59.46861804093505,
,-0.1,,,,,Stimuli/CS+3.BMP,,,,,,,,,,,,,,,,,0,23,23,7,,,,,,,,,,,,,968.1121390419867,972.2635237079958,,,,,,,,,,,,,,,,,,,,,,,,,,962.1281298329995,962.1281298329995,,Demo,001,2022-12-14_05h50.47.314,FigureTest,2022.2.4,59.46861804093505,
,0.4,,,,,Stimuli/CS+1.BMP,,,,,,,,,,,,,,,,,0,24,24,17,,,,,,,,,,,,,978.245807416999,982.3856246669893,,,,,,,,,,,,,,,,,,,,,,,,,,972.2635237079958,972.2635237079958,,Demo,001,2022-12-14_05h50.47.314,FigureTest,2022.2.4,59.46861804093505,
,0.4,,,,,Stimuli/CS+4.BMP,,,,,,,,,,,,,,,,,0,25,25,20,,,,,,,,,,,,,988.3945921249979,992.6881597920001,,,,,,,,,,,,,,,,,,,,,,,,,,982.3856246669893,982.3856246669893,,Demo,001,2022-12-14_05h50.47.314,FigureTest,2022.2.4,59.46861804093505,
,0.4,,,,,Stimuli/CS+1.BMP,,,,,,,,,,,,,,,,,0,26,26,11,,,,,,,,,,,,,998.6788246249926,1002.8082883329917,,,,,,,,,,,,,,,,,,,,,,,,,,992.6881597920001,992.6881597920001,,Demo,001,2022-12-14_05h50.47.314,FigureTest,2022.2.4,59.46861804093505,
,-0.1,,,,,Stimuli/CS+3.BMP,,,,,,,,,,,,,,,,,0,27,27,3,,,,,,,,,,,,,1008.8146823749994,1012.9237587499956,,,,,,,,,,,,,,,,,,,,,,,,,,1002.8082883329917,1002.8082883329917,,Demo,001,2022-12-14_05h50.47.314,FigureTest,2022.2.4,59.46861804093505,
,0.4,,,,,Stimuli/CS+4.BMP,,,,,,,,,,,,,,,,,0,28,28,22,,,,,,,,,,,,,1018.9128897919873,1023.0011682919867,,,,,,,,,,,,,,,,,,,,,,,,,,1012.9237587499956,1012.9237587499956,,Demo,001,2022-12-14_05h50.47.314,FigureTest,2022.2.4,59.46861804093505,
,-0.1,,,,,Stimuli/CS+3.BMP,,,,,,,,,,,,,,,,,0,29,29,6,,,,,,,,,,,,,1028.996044332991,1033.1316667079955,,,,,,,,,,,,,,,,,,,,,,,,,,1023.0011682919867,1023.0011682919867,,Demo,001,2022-12-14_05h50.47.314,FigureTest,2022.2.4,59.46861804093505,
,-0.1,Instructions_EN/ratingCS+1.png,,,,,,,,,,,,,,,,,,,,,,,,,0,0,0,0,,,,,,,,,,,1033.1316667079955,1033.1316667079955,1033.1316667079955,None,None,4,3.937852417016984,,,,,,,,,,,,,,,,,,,,,,Demo,001,2022-12-14_05h50.47.314,FigureTest,2022.2.4,59.46861804093505,
,0.4,Instructions_EN/ratingCS+3.png,,,,,,,,,,,,,,,,,,,,,,,,,0,1,1,1,,,,,,,,,,,1037.2141783749976,1037.2141783749976,1037.2141783749976,None,None,7,0.9236024590209126,,,,,,,,,,,,,,,,,,,,,,Demo,001,2022-12-14_05h50.47.314,FigureTest,2022.2.4,59.46861804093505,
,-0.1,Instructions_EN/ratingCS+4.png,,,,,,,,,,,,,,,,,,,,,,,,,0,2,2,2,,,,,,,,,,,1038.1943552079902,1038.1943552079902,1038.1943552079902,None,None,8,1.6021323340100935,,,,,,,,,,,,,,,,,,,,,,Demo,001,2022-12-14_05h50.47.314,FigureTest,2022.2.4,59.46861804093505,
,,,,,,,,,,,,,,,,,,,,,,,,,,,,,,,,,,,,,,,,,,,,,,,,,,,,,,,,,,,,,,,,,,,,1039.8874117499945,,,,,,,
