PreCondName,TrgCol,ratingName,CSName,UCSName,SoundName,ExtName,PreConditiong.thisRepN,PreConditiong.thisTrialN,PreConditiong.thisN,PreConditiong.thisIndex,Rating1.thisRepN,Rating1.thisTrialN,Rating1.thisN,Rating1.thisIndex,Conditioning.thisRepN,Conditioning.thisTrialN,Conditioning.thisN,Conditioning.thisIndex,Rating2.thisRepN,Rating2.thisTrialN,Rating2.thisN,Rating2.thisIndex,Extinction.thisRepN,Extinction.thisTrialN,Extinction.thisN,Extinction.thisIndex,Rating3.thisRepN,Rating3.thisTrialN,Rating3.thisN,Rating3.thisIndex,InstrBkg.started,InstrBkg.stopped,TagFig.started,TagFig.stopped,InstrKeyResp.keys,InstrKeyResp.rt,InstrKeyResp.started,InstrKeyResp.stopped,precondBkg.started,precondBkg.stopped,imagePreCond.started,imagePreCond.stopped,BlankBkg.started,BlankBkg.stopped,Bkg.started,Bkg.stopped,image.started,image.stopped,Scale.response,Scale.rt,Scale.started,Scale.stopped,InstrBkg2.started,InstrBkg2.stopped,TagFig2.started,TagFig2.stopped,key_resp.keys,key_resp.rt,key_resp.started,key_resp.stopped,CSBkg.started,CSBkg.stopped,CS_image.started,CS_image.stopped,UCSBkg.started,UCSBkg.stopped,UCS_image.started,UCS_image.stopped,sound_1.started,sound_1.stopped,InstrBkg3.started,InstrBkg3.stopped,TagFig3.started,TagFig3.stopped,key_resp_3.keys,key_resp_3.rt,key_resp_3.started,key_resp_3.stopped,ExtBkg.started,ExtBkg.stopped,Ext_image.started,Ext_image.stopped,EndTxt.started,EndTxt.stopped,participant,session,date,expName,psychopyVersion,frameRate,
,,,,,,,,,,,,,,,,,,,,,,,,,,,,,,,36.67756669999653,None,36.67756669999653,None,space,2.561309099997743,36.67756669999653,None,,,,,,,,,,,,,,,,,,,,,,,,,,,,,,,,,,,,,,,,,,,,,,,huangyz,001,2021_Aug_05_1741,FigureTest,2021.2.1,59.836992066234245,
PreCondition\CS+.PNG,-0.1,,,,,,0,0,0,4,,,,,,,,,,,,,,,,,,,,,,,,,,,,,39.258746799998335,None,39.258746799998335,45.256056299997,45.2700726999974,None,,,,,,,,,,,,,,,,,,,,,,,,,,,,,,,,,,,,,,,,,huangyz,001,2021_Aug_05_1741,FigureTest,2021.2.1,59.836992066234245,
PreCondition\CS+.PNG,-0.1,,,,,,0,1,1,1,,,,,,,,,,,,,,,,,,,,,,,,,,,,,51.40312239999912,None,51.40312239999912,57.385396699999546,57.40176209999845,None,,,,,,,,,,,,,,,,,,,,,,,,,,,,,,,,,,,,,,,,,huangyz,001,2021_Aug_05_1741,FigureTest,2021.2.1,59.836992066234245,
PreCondition\CS+.PNG,-0.1,,,,,,0,2,2,0,,,,,,,,,,,,,,,,,,,,,,,,,,,,,63.60137109999778,None,63.60137109999778,69.58498489999693,69.60410109999793,None,,,,,,,,,,,,,,,,,,,,,,,,,,,,,,,,,,,,,,,,,huangyz,001,2021_Aug_05_1741,FigureTest,2021.2.1,59.836992066234245,
PreCondition\CS-.PNG,0.4,,,,,,0,3,3,9,,,,,,,,,,,,,,,,,,,,,,,,,,,,,75.73467679999885,None,75.73467679999885,81.71626439999818,81.75225099999807,None,,,,,,,,,,,,,,,,,,,,,,,,,,,,,,,,,,,,,,,,,huangyz,001,2021_Aug_05_1741,FigureTest,2021.2.1,59.836992066234245,
PreCondition\CS-.PNG,0.4,,,,,,0,4,4,6,,,,,,,,,,,,,,,,,,,,,,,,,,,,,88.0015519999979,None,88.0015519999979,93.98406069999692,93.99978559999727,None,,,,,,,,,,,,,,,,,,,,,,,,,,,,,,,,,,,,,,,,,huangyz,001,2021_Aug_05_1741,FigureTest,2021.2.1,59.836992066234245,
PreCondition\CS+.PNG,-0.1,,,,,,0,5,5,2,,,,,,,,,,,,,,,,,,,,,,,,,,,,,100.24760279999828,None,100.24760279999828,106.23136979999981,106.24728419999883,None,,,,,,,,,,,,,,,,,,,,,,,,,,,,,,,,,,,,,,,,,huangyz,001,2021_Aug_05_1741,FigureTest,2021.2.1,59.836992066234245,
PreCondition\CS-.PNG,0.4,,,,,,0,6,6,5,,,,,,,,,,,,,,,,,,,,,,,,,,,,,112.26337319999948,None,112.26337319999948,118.24904859999879,118.26444109999647,None,,,,,,,,,,,,,,,,,,,,,,,,,,,,,,,,,,,,,,,,,huangyz,001,2021_Aug_05_1741,FigureTest,2021.2.1,59.836992066234245,
PreCondition\CS-.PNG,0.4,,,,,,0,7,7,8,,,,,,,,,,,,,,,,,,,,,,,,,,,,,124.36211409999669,None,124.36211409999669,130.34561009999743,130.36215639999864,None,,,,,,,,,,,,,,,,,,,,,,,,,,,,,,,,,,,,,,,,,huangyz,001,2021_Aug_05_1741,FigureTest,2021.2.1,59.836992066234245,
PreCondition\CS+.PNG,-0.1,,,,,,0,8,8,3,,,,,,,,,,,,,,,,,,,,,,,,,,,,,136.68526929999643,None,136.68526929999643,142.67717189999894,142.69407169999977,None,,,,,,,,,,,,,,,,,,,,,,,,,,,,,,,,,,,,,,,,,huangyz,001,2021_Aug_05_1741,FigureTest,2021.2.1,59.836992066234245,
PreCondition\CS-.PNG,0.4,,,,,,0,9,9,7,,,,,,,,,,,,,,,,,,,,,,,,,,,,,149.07655049999812,None,149.07655049999812,155.0587607999987,155.09459479999714,None,,,,,,,,,,,,,,,,,,,,,,,,,,,,,,,,,,,,,,,,,huangyz,001,2021_Aug_05_1741,FigureTest,2021.2.1,59.836992066234245,
,-0.1,Rating\ratingCS+.png,,,,,,,,,0,0,0,0,,,,,,,,,,,,,,,,,,,,,,,,,,,,,,,165.0500205999997,None,165.0500205999997,None,3.015625,3.7921413000003668,165.0500205999997,None,,,,,,,,,,,,,,,,,,,,,,,,,,,,,,,,,huangyz,001,2021_Aug_05_1741,FigureTest,2021.2.1,59.836992066234245,
,0.4,Rating\ratingCS-.png,,,,,,,,,0,1,1,1,,,,,,,,,,,,,,,,,,,,,,,,,,,,,,,170.03302549999717,None,170.03302549999717,None,2.6796875,1.0670563999992737,170.03302549999717,None,,,,,,,,,,,,,,,,,,,,,,,,,,,,,,,,,huangyz,001,2021_Aug_05_1741,FigureTest,2021.2.1,59.836992066234245,
,,,,,,,,,,,,,,,,,,,,,,,,,,,,,,,,,,,,,,,,,,,,,,,,,,,,,170.9467201999978,None,170.9467201999978,None,space,3.025908100000379,170.9467201999978,None,,,,,,,,,,,,,,,,,,,,,,,,,huangyz,001,2021_Aug_05_1741,FigureTest,2021.2.1,59.836992066234245,
,0.4,,Condition\CS-.PNG,Condition\black.PNG,Sound\silent.wav,,,,,,,,,,0,0,0,16,,,,,,,,,,,,,,,,,,,,,,,,,182.63719929999934,None,,,,,,,,,,,,,,,,,174.01017339999817,None,174.01017339999817,None,None,None,None,None,None,None,,,,,,,,,,,,,,,huangyz,001,2021_Aug_05_1741,FigureTest,2021.2.1,59.836992066234245,
,0.4,,Condition\CS-.PNG,Condition\black.PNG,Sound\silent.wav,,,,,,,,,,0,1,1,10,,,,,,,,,,,,,,,,,,,,,,,,,195.0164659999973,None,,,,,,,,,,,,,,,,,188.92102969999905,None,188.92102969999905,None,194.96256909999647,None,194.96256909999647,None,194.90759659999458,None,,,,,,,,,,,,,,,huangyz,001,2021_Aug_05_1741,FigureTest,2021.2.1,59.836992066234245,
,-0.1,,Condition\CS+.PNG,Condition\UCS.PNG,Sound\scream1.wav,,,,,,,,,,0,2,2,8,,,,,,,,,,,,,,,,,,,,,,,,,207.25981829999728,None,,,,,,,,,,,,,,,,,201.25321699999768,None,201.25321699999768,None,206.37178289999792,None,206.37178289999792,None,206.36744048999645,None,,,,,,,,,,,,,,,huangyz,001,2021_Aug_05_1741,FigureTest,2021.2.1,59.836992066234245,
,0.4,,Condition\CS-.PNG,Condition\black.PNG,Sound\silent.wav,,,,,,,,,,0,3,3,19,,,,,,,,,,,,,,,,,,,,,,,,,222.01399179999862,None,,,,,,,,,,,,,,,,,213.37810649999665,None,213.37810649999665,None,None,None,None,None,None,None,,,,,,,,,,,,,,,huangyz,001,2021_Aug_05_1741,FigureTest,2021.2.1,59.836992066234245,
,0.4,,Condition\CS-.PNG,Condition\black.PNG,Sound\silent.wav,,,,,,,,,,0,4,4,17,,,,,,,,,,,,,,,,,,,,,,,,,234.51129429999855,None,,,,,,,,,,,,,,,,,228.44919049999953,None,228.44919049999953,None,None,None,None,None,None,None,,,,,,,,,,,,,,,huangyz,001,2021_Aug_05_1741,FigureTest,2021.2.1,59.836992066234245,
,-0.1,,Condition\CS+.PNG,Condition\UCS.PNG,Sound\scream1.wav,,,,,,,,,,0,5,5,2,,,,,,,,,,,,,,,,,,,,,,,,,246.75125359999947,None,,,,,,,,,,,,,,,,,240.69881699999678,None,240.69881699999678,None,245.80753069999992,None,245.80753069999992,None,245.81646675999875,None,,,,,,,,,,,,,,,huangyz,001,2021_Aug_05_1741,FigureTest,2021.2.1,59.836992066234245,
,-0.1,,Condition\CS+.PNG,Condition\UCS.PNG,Sound\scream1.wav,,,,,,,,,,0,6,6,9,,,,,,,,,,,,,,,,,,,,,,,,,258.9522990999976,None,,,,,,,,,,,,,,,,,252.94521299999906,None,252.94521299999906,None,257.9456341999976,None,257.9456341999976,None,257.94514296999876,None,,,,,,,,,,,,,,,huangyz,001,2021_Aug_05_1741,FigureTest,2021.2.1,59.836992066234245,
,0,,Condition\CS+.PNG,Condition\black.PNG,Sound\silent.wav,,,,,,,,,,0,7,7,1,,,,,,,,,,,,,,,,,,,,,,,,,273.74338329999955,None,,,,,,,,,,,,,,,,,265.14390490000005,None,265.14390490000005,None,None,None,None,None,None,None,,,,,,,,,,,,,,,huangyz,001,2021_Aug_05_1741,FigureTest,2021.2.1,59.836992066234245,
,-0.1,,Condition\CS+.PNG,Condition\UCS.PNG,Sound\scream1.wav,,,,,,,,,,0,8,8,4,,,,,,,,,,,,,,,,,,,,,,,,,286.1007019999997,None,,,,,,,,,,,,,,,,,280.04734279999684,None,280.04734279999684,None,285.16353869999875,None,285.16353869999875,None,285.15965538999694,None,,,,,,,,,,,,,,,huangyz,001,2021_Aug_05_1741,FigureTest,2021.2.1,59.836992066234245,
,0.4,,Condition\CS-.PNG,Condition\black.PNG,Sound\silent.wav,,,,,,,,,,0,9,9,12,,,,,,,,,,,,,,,,,,,,,,,,,300.9890450999992,None,,,,,,,,,,,,,,,,,292.3364954999997,None,292.3364954999997,None,None,None,None,None,None,None,,,,,,,,,,,,,,,huangyz,001,2021_Aug_05_1741,FigureTest,2021.2.1,59.836992066234245,
,0.4,,Condition\CS-.PNG,Condition\black.PNG,Sound\silent.wav,,,,,,,,,,0,10,10,14,,,,,,,,,,,,,,,,,,,,,,,,,313.16485609999654,None,,,,,,,,,,,,,,,,,307.10804129999815,None,307.10804129999815,None,None,None,None,None,None,None,,,,,,,,,,,,,,,huangyz,001,2021_Aug_05_1741,FigureTest,2021.2.1,59.836992066234245,
,-0.1,,Condition\CS+.PNG,Condition\UCS.PNG,Sound\scream1.wav,,,,,,,,,,0,11,11,7,,,,,,,,,,,,,,,,,,,,,,,,,325.6076288999975,None,,,,,,,,,,,,,,,,,319.53494269999646,None,319.53494269999646,None,324.621199899997,None,324.621199899997,None,324.6189172199978,None,,,,,,,,,,,,,,,huangyz,001,2021_Aug_05_1741,FigureTest,2021.2.1,59.836992066234245,
,0,,Condition\CS+.PNG,Condition\black.PNG,Sound\silent.wav,,,,,,,,,,0,12,12,0,,,,,,,,,,,,,,,,,,,,,,,,,340.53074959999867,None,,,,,,,,,,,,,,,,,331.89284209999823,None,331.89284209999823,None,None,None,None,None,None,None,,,,,,,,,,,,,,,huangyz,001,2021_Aug_05_1741,FigureTest,2021.2.1,59.836992066234245,
,0.4,,Condition\CS-.PNG,Condition\black.PNG,Sound\silent.wav,,,,,,,,,,0,13,13,13,,,,,,,,,,,,,,,,,,,,,,,,,353.01820379999845,None,,,,,,,,,,,,,,,,,346.9037103999981,None,346.9037103999981,None,352.951308599997,None,352.951308599997,None,352.88454622999376,None,,,,,,,,,,,,,,,huangyz,001,2021_Aug_05_1741,FigureTest,2021.2.1,59.836992066234245,
,0.4,,Condition\CS-.PNG,Condition\black.PNG,Sound\silent.wav,,,,,,,,,,0,14,14,15,,,,,,,,,,,,,,,,,,,,,,,,,365.258559599999,None,,,,,,,,,,,,,,,,,359.1391885999983,None,359.1391885999983,None,365.1749193999967,None,365.1749193999967,None,365.11053302999386,None,,,,,,,,,,,,,,,huangyz,001,2021_Aug_05_1741,FigureTest,2021.2.1,59.836992066234245,
,-0.1,,Condition\CS+.PNG,Condition\UCS.PNG,Sound\scream1.wav,,,,,,,,,,0,15,15,5,,,,,,,,,,,,,,,,,,,,,,,,,377.44307019999906,None,,,,,,,,,,,,,,,,,371.42999879999843,None,371.42999879999843,None,376.5362884999995,None,376.5362884999995,None,376.52954698999633,None,,,,,,,,,,,,,,,huangyz,001,2021_Aug_05_1741,FigureTest,2021.2.1,59.836992066234245,
,-0.1,,Condition\CS+.PNG,Condition\UCS.PNG,Sound\scream1.wav,,,,,,,,,,0,16,16,3,,,,,,,,,,,,,,,,,,,,,,,,,389.91001609999876,None,,,,,,,,,,,,,,,,,383.8735530999984,None,383.8735530999984,None,388.8733407999971,None,388.8733407999971,None,388.87350916999674,None,,,,,,,,,,,,,,,huangyz,001,2021_Aug_05_1741,FigureTest,2021.2.1,59.836992066234245,
,0.4,,Condition\CS-.PNG,Condition\black.PNG,Sound\silent.wav,,,,,,,,,,0,17,17,11,,,,,,,,,,,,,,,,,,,,,,,,,404.7981579999978,None,,,,,,,,,,,,,,,,,396.17317489999914,None,396.17317489999914,None,None,None,None,None,None,None,,,,,,,,,,,,,,,huangyz,001,2021_Aug_05_1741,FigureTest,2021.2.1,59.836992066234245,
,-0.1,,Condition\CS+.PNG,Condition\UCS.PNG,Sound\scream1.wav,,,,,,,,,,0,18,18,6,,,,,,,,,,,,,,,,,,,,,,,,,417.1799272999997,None,,,,,,,,,,,,,,,,,411.1324842999966,None,411.1324842999966,None,416.2414220999999,None,416.2414220999999,None,416.249372559999,None,,,,,,,,,,,,,,,huangyz,001,2021_Aug_05_1741,FigureTest,2021.2.1,59.836992066234245,
,0.4,,Condition\CS-.PNG,Condition\black.PNG,Sound\silent.wav,,,,,,,,,,0,19,19,18,,,,,,,,,,,,,,,,,,,,,,,,,432.1071609999999,None,,,,,,,,,,,,,,,,,423.4677890999992,None,423.4677890999992,None,None,None,None,None,None,None,,,,,,,,,,,,,,,huangyz,001,2021_Aug_05_1741,FigureTest,2021.2.1,59.836992066234245,
,-0.1,Rating\ratingCS+.png,,,,,,,,,,,,,,,,,0,0,0,0,,,,,,,,,,,,,,,,,,,,,,,439.4078032999969,None,439.4078032999969,None,7.25,34.38141840000026,439.4078032999969,None,,,,,,,,,,,,,,,,,,,,,,,,,,,,,,,,,huangyz,001,2021_Aug_05_1741,FigureTest,2021.2.1,59.836992066234245,
,0.4,Rating\ratingCS-.png,,,,,,,,,,,,,,,,,0,1,1,1,,,,,,,,,,,,,,,,,,,,,,,474.7941355999974,None,474.7941355999974,None,3.3828125,1.1009013000002597,474.7941355999974,None,,,,,,,,,,,,,,,,,,,,,,,,,,,,,,,,,huangyz,001,2021_Aug_05_1741,FigureTest,2021.2.1,59.836992066234245,
,,,,,,,,,,,,,,,,,,,,,,,,,,,,,,,,,,,,,,,,,,,,,,,,,,,,,,,,,,,,,,,,,,,,,,,475.87007849999645,None,475.87007849999645,None,space,4.38993660000051,475.87007849999645,None,,,,,,,huangyz,001,2021_Aug_05_1741,FigureTest,2021.2.1,59.836992066234245,
,-0.1,,,,,Extinction\CS+.PNG,,,,,,,,,,,,,,,,,0,0,0,3,,,,,,,,,,,,,,,,,486.27757839999686,None,,,,,,,,,,,,,,,,,,,,,,,,,,,,,,,,,,,480.2783169999966,None,480.2783169999966,None,,,huangyz,001,2021_Aug_05_1741,FigureTest,2021.2.1,59.836992066234245,
,0.4,,,,,Extinction\CS-.PNG,,,,,,,,,,,,,,,,,0,1,1,5,,,,,,,,,,,,,,,,,498.4104625999971,None,,,,,,,,,,,,,,,,,,,,,,,,,,,,,,,,,,,492.41011660000004,None,492.41011660000004,None,,,huangyz,001,2021_Aug_05_1741,FigureTest,2021.2.1,59.836992066234245,
,0.4,,,,,Extinction\CS-.PNG,,,,,,,,,,,,,,,,,0,2,2,9,,,,,,,,,,,,,,,,,510.5423219999975,None,,,,,,,,,,,,,,,,,,,,,,,,,,,,,,,,,,,504.5416682999967,None,504.5416682999967,None,,,huangyz,001,2021_Aug_05_1741,FigureTest,2021.2.1,59.836992066234245,
,-0.1,,,,,Extinction\CS+.PNG,,,,,,,,,,,,,,,,,0,3,3,0,,,,,,,,,,,,,,,,,522.5738534999982,None,,,,,,,,,,,,,,,,,,,,,,,,,,,,,,,,,,,516.5741175999974,None,516.5741175999974,None,,,huangyz,001,2021_Aug_05_1741,FigureTest,2021.2.1,59.836992066234245,
,-0.1,,,,,Extinction\CS+.PNG,,,,,,,,,,,,,,,,,0,4,4,2,,,,,,,,,,,,,,,,,534.7228681999986,None,,,,,,,,,,,,,,,,,,,,,,,,,,,,,,,,,,,528.7232033,None,528.7232033,None,,,huangyz,001,2021_Aug_05_1741,FigureTest,2021.2.1,59.836992066234245,
,0.4,,,,,Extinction\CS-.PNG,,,,,,,,,,,,,,,,,0,5,5,7,,,,,,,,,,,,,,,,,546.9547763999981,None,,,,,,,,,,,,,,,,,,,,,,,,,,,,,,,,,,,540.9558534999996,None,540.9558534999996,None,,,huangyz,001,2021_Aug_05_1741,FigureTest,2021.2.1,59.836992066234245,
,0.4,,,,,Extinction\CS-.PNG,,,,,,,,,,,,,,,,,0,6,6,6,,,,,,,,,,,,,,,,,559.2700768999966,None,,,,,,,,,,,,,,,,,,,,,,,,,,,,,,,,,,,553.2705730999987,None,553.2705730999987,None,,,huangyz,001,2021_Aug_05_1741,FigureTest,2021.2.1,59.836992066234245,
,-0.1,,,,,Extinction\CS+.PNG,,,,,,,,,,,,,,,,,0,7,7,4,,,,,,,,,,,,,,,,,571.6025726999978,None,,,,,,,,,,,,,,,,,,,,,,,,,,,,,,,,,,,565.6026083999968,None,565.6026083999968,None,,,huangyz,001,2021_Aug_05_1741,FigureTest,2021.2.1,59.836992066234245,
,-0.1,,,,,Extinction\CS+.PNG,,,,,,,,,,,,,,,,,0,8,8,1,,,,,,,,,,,,,,,,,583.870735499997,None,,,,,,,,,,,,,,,,,,,,,,,,,,,,,,,,,,,577.8521122999991,None,577.8521122999991,None,,,huangyz,001,2021_Aug_05_1741,FigureTest,2021.2.1,59.836992066234245,
,0.4,,,,,Extinction\CS-.PNG,,,,,,,,,,,,,,,,,0,9,9,8,,,,,,,,,,,,,,,,,596.1020132999984,None,,,,,,,,,,,,,,,,,,,,,,,,,,,,,,,,,,,590.1008797999966,None,590.1008797999966,None,,,huangyz,001,2021_Aug_05_1741,FigureTest,2021.2.1,59.836992066234245,
,-0.1,Rating\ratingCS+.png,,,,,,,,,,,,,,,,,,,,,,,,,0,0,0,0,,,,,,,,,,,,,,,603.404776899999,None,603.404776899999,None,1.859375,66.563779600001,603.404776899999,None,,,,,,,,,,,,,,,,,,,,,,,,,,,,,,,,,huangyz,001,2021_Aug_05_1741,FigureTest,2021.2.1,59.836992066234245,
,0.4,Rating\ratingCS-.png,,,,,,,,,,,,,,,,,,,,,,,,,0,1,1,1,,,,,,,,,,,,,,,671.0752563999995,None,671.0752563999995,None,2.9609375,1.506591199999093,671.0752563999995,None,,,,,,,,,,,,,,,,,,,,,,,,,,,,,,,,,huangyz,001,2021_Aug_05_1741,FigureTest,2021.2.1,59.836992066234245,
,,,,,,,,,,,,,,,,,,,,,,,,,,,,,,,,,,,,,,,,,,,,,,,,,,,,,,,,,,,,,,,,,,,,,,,,,,,,,,,,,,,672.4638760999987,None,,,,,,,
