PreCondName,TrgCol,ratingName,CSName,UCSName,SoundName,trials_2.thisRepN,trials_2.thisTrialN,trials_2.thisN,trials_2.thisIndex,PreCond1.thisRepN,PreCond1.thisTrialN,PreCond1.thisN,PreCond1.thisIndex,RatingPreCond1.thisRepN,RatingPreCond1.thisTrialN,RatingPreCond1.thisN,RatingPreCond1.thisIndex,Cond1.thisRepN,Cond1.thisTrialN,Cond1.thisN,Cond1.thisIndex,RatingCond1.thisRepN,RatingCond1.thisTrialN,RatingCond1.thisN,RatingCond1.thisIndex,InstrBkg.started,InstrBkg.stopped,TagFig.started,TagFig.stopped,InstrKeyResp.keys,InstrKeyResp.rt,InstrKeyResp.started,InstrKeyResp.stopped,precondBkg.started,precondBkg.stopped,imagePreCond.started,imagePreCond.stopped,BlankBkg.started,BlankBkg.stopped,Bkg.started,Bkg.stopped,image.started,image.stopped,Scale.response,Scale.rt,Scale.started,Scale.stopped,InstrBkg2.started,InstrBkg2.stopped,TagFig2.started,TagFig2.stopped,key_resp.keys,key_resp.rt,key_resp.started,key_resp.stopped,CSBkg.started,CSBkg.stopped,CS_image.started,CS_image.stopped,UCSBkg.started,UCSBkg.stopped,UCS_image.started,UCS_image.stopped,sound_1.started,sound_1.stopped,participant,session,date,expName,psychopyVersion,frameRate,
PreCondition\CS-1.BMP,0.4,,,,,0,0,0,0,0,0,0,7,,,,,,,,,,,,,188.2631905999733,None,188.2631905999733,None,space,23.303261400025804,188.2631905999733,None,211.60025949997362,None,211.60025949997362,None,213.60314289998496,None,,,,,,,,,,,,,,,,,,,,,,,,,,,hyz1102,001,2021_Nov_02_1204,FigureTest,2021.2.1,59.89594874649438,
PreCondition\CS-1.BMP,0.4,,,,,0,0,0,0,0,1,1,5,,,,,,,,,,,,,,,,,,,,,214.76871099998243,None,214.76871099998243,216.75270700000692,216.76940799999284,None,,,,,,,,,,,,,,,,,,,,,,,,,,,hyz1102,001,2021_Nov_02_1204,FigureTest,2021.2.1,59.89594874649438,
PreCondition\CS+1.BMP,-0.1,,,,,0,0,0,0,0,2,2,2,,,,,,,,,,,,,,,,,,,,,217.96724410000024,None,217.96724410000024,None,219.9690108000068,None,,,,,,,,,,,,,,,,,,,,,,,,,,,hyz1102,001,2021_Nov_02_1204,FigureTest,2021.2.1,59.89594874649438,
PreCondition\CS+1.BMP,-0.1,,,,,0,0,0,0,0,3,3,4,,,,,,,,,,,,,,,,,,,,,221.20160069997655,None,221.20160069997655,None,223.2021226999932,None,,,,,,,,,,,,,,,,,,,,,,,,,,,hyz1102,001,2021_Nov_02_1204,FigureTest,2021.2.1,59.89594874649438,
PreCondition\CS-1.BMP,0.4,,,,,0,0,0,0,0,4,4,6,,,,,,,,,,,,,,,,,,,,,224.41422749997582,None,224.41422749997582,226.40171160001773,226.4182866999763,None,,,,,,,,,,,,,,,,,,,,,,,,,,,hyz1102,001,2021_Nov_02_1204,FigureTest,2021.2.1,59.89594874649438,
PreCondition\CS-1.BMP,0.4,,,,,0,0,0,0,0,5,5,8,,,,,,,,,,,,,,,,,,,,,227.60098380001727,None,227.60098380001727,None,229.60060299996985,None,,,,,,,,,,,,,,,,,,,,,,,,,,,hyz1102,001,2021_Nov_02_1204,FigureTest,2021.2.1,59.89594874649438,
PreCondition\CS-1.BMP,0.4,,,,,0,0,0,0,0,6,6,9,,,,,,,,,,,,,,,,,,,,,230.7841163999983,None,230.7841163999983,None,232.78395449998789,None,,,,,,,,,,,,,,,,,,,,,,,,,,,hyz1102,001,2021_Nov_02_1204,FigureTest,2021.2.1,59.89594874649438,
PreCondition\CS+1.BMP,-0.1,,,,,0,0,0,0,0,7,7,3,,,,,,,,,,,,,,,,,,,,,233.97467279998818,None,233.97467279998818,235.96709809999447,235.98381170001812,None,,,,,,,,,,,,,,,,,,,,,,,,,,,hyz1102,001,2021_Nov_02_1204,FigureTest,2021.2.1,59.89594874649438,
PreCondition\CS+1.BMP,-0.1,,,,,0,0,0,0,0,8,8,0,,,,,,,,,,,,,,,,,,,,,237.06644819997018,None,237.06644819997018,239.04961410001852,239.0669434000156,None,,,,,,,,,,,,,,,,,,,,,,,,,,,hyz1102,001,2021_Nov_02_1204,FigureTest,2021.2.1,59.89594874649438,
PreCondition\CS+1.BMP,-0.1,,,,,0,0,0,0,0,9,9,1,,,,,,,,,,,,,,,,,,,,,240.18293259997154,None,240.18293259997154,242.16688839998096,242.18344669998623,None,,,,,,,,,,,,,,,,,,,,,,,,,,,hyz1102,001,2021_Nov_02_1204,FigureTest,2021.2.1,59.89594874649438,
,-0.1,Rating\ratingCS+1.png,,,,0,0,0,0,,,,,0,0,0,0,,,,,,,,,,,,,,,,,,,,,,,247.34926170000108,None,247.34926170000108,None,1.5546875000000002,3.429645999975037,247.34926170000108,None,,,,,,,,,,,,,,,,,,,hyz1102,001,2021_Nov_02_1204,FigureTest,2021.2.1,59.89594874649438,
,0.4,Rating\ratingCS-1.png,,,,0,0,0,0,,,,,0,1,1,1,,,,,,,,,,,,,,,,,,,,,,,252.43023140000878,None,252.43023140000878,None,1.453125,1.422494700003881,252.43023140000878,None,,,,,,,,,,,,,,,,,,,hyz1102,001,2021_Nov_02_1204,FigureTest,2021.2.1,59.89594874649438,
,0.9,,Condition\CS+1.BMP,Condition\UCS1.BMP,Sound\scream1.wav,0,0,0,0,,,,,,,,,0,0,0,7,,,,,,,,,,,,,,,,,258.3165147000109,None,,,,,,,,,253.61266490002163,None,253.61266490002163,None,space,1.5694834000314586,253.61266490002163,None,255.33235109999077,None,255.33235109999077,None,257.32511169998907,None,257.32511169998907,None,257.33120574000054,None,hyz1102,001,2021_Nov_02_1204,FigureTest,2021.2.1,59.89594874649438,
,0.9,,Condition\CS+1.BMP,Condition\UCS1.BMP,Sound\scream1.wav,0,0,0,0,,,,,,,,,0,1,1,5,,,,,,,,,,,,,,,,,262.7905562000233,None,,,,,,,,,,,,,,,,,259.78062739997404,None,259.78062739997404,None,261.78272720001405,None,261.78272720001405,None,261.7812545199762,None,hyz1102,001,2021_Nov_02_1204,FigureTest,2021.2.1,59.89594874649438,
,0.4,,Condition\CS-1.BMP,Condition\black.PNG,Sound\silent.wav,0,0,0,0,,,,,,,,,0,2,2,15,,,,,,,,,,,,,,,,,269.6620680000051,None,,,,,,,,,,,,,,,,,264.1750665999716,None,264.1750665999716,None,None,None,None,None,None,None,hyz1102,001,2021_Nov_02_1204,FigureTest,2021.2.1,59.89594874649438,
,0.9,,Condition\CS+1.BMP,Condition\UCS1.BMP,Sound\scream1.wav,0,0,0,0,,,,,,,,,0,3,3,8,,,,,,,,,,,,,,,,,273.7924885000102,None,,,,,,,,,,,,,,,,,270.78498639998725,None,270.78498639998725,None,272.8970367999864,None,272.8970367999864,None,272.90945206005125,None,hyz1102,001,2021_Nov_02_1204,FigureTest,2021.2.1,59.89594874649438,
,0.4,,Condition\CS-1.BMP,Condition\black.PNG,Sound\silent.wav,0,0,0,0,,,,,,,,,0,4,4,28,,,,,,,,,,,,,,,,,280.3659409999964,None,,,,,,,,,,,,,,,,,274.909326300025,None,274.909326300025,None,None,None,None,None,None,None,hyz1102,001,2021_Nov_02_1204,FigureTest,2021.2.1,59.89594874649438,
,0.9,,Condition\CS+1.BMP,Condition\UCS1.BMP,Sound\scream1.wav,0,0,0,0,,,,,,,,,0,5,5,12,,,,,,,,,,,,,,,,,284.61828589998186,None,,,,,,,,,,,,,,,,,281.5899589000037,None,281.5899589000037,None,283.70474419998936,None,283.70474419998936,None,283.7155791600118,None,hyz1102,001,2021_Nov_02_1204,FigureTest,2021.2.1,59.89594874649438,
,-0.1,,Condition\CS+1.BMP,Condition\black.PNG,Sound\silent.wav,0,0,0,0,,,,,,,,,0,6,6,0,,,,,,,,,,,,,,,,,291.46260670002084,None,,,,,,,,,,,,,,,,,286.00896419998026,None,286.00896419998026,None,None,None,None,None,None,None,hyz1102,001,2021_Nov_02_1204,FigureTest,2021.2.1,59.89594874649438,
,0.4,,Condition\CS-1.BMP,Condition\black.PNG,Sound\silent.wav,0,0,0,0,,,,,,,,,0,7,7,22,,,,,,,,,,,,,,,,,295.7083447999903,None,,,,,,,,,,,,,,,,,292.6141720999731,None,292.6141720999731,None,295.63819129997864,None,295.63819129997864,None,295.57165386026026,None,hyz1102,001,2021_Nov_02_1204,FigureTest,2021.2.1,59.89594874649438,
,0.4,,Condition\CS-1.BMP,Condition\black.PNG,Sound\silent.wav,0,0,0,0,,,,,,,,,0,8,8,20,,,,,,,,,,,,,,,,,300.0509077999741,None,,,,,,,,,,,,,,,,,296.9594748999807,None,296.9594748999807,None,299.99447839998174,None,299.99447839998174,None,299.92499548030315,None,hyz1102,001,2021_Nov_02_1204,FigureTest,2021.2.1,59.89594874649438,
,0.9,,Condition\CS+1.BMP,Condition\UCS1.BMP,Sound\scream1.wav,0,0,0,0,,,,,,,,,0,9,9,3,,,,,,,,,,,,,,,,,304.12667720002355,None,,,,,,,,,,,,,,,,,301.0997062000097,None,301.0997062000097,None,303.20622230001027,None,303.20622230001027,None,303.21608596002915,None,hyz1102,001,2021_Nov_02_1204,FigureTest,2021.2.1,59.89594874649438,
,0.4,,Condition\CS-1.BMP,Condition\black.PNG,Sound\silent.wav,0,0,0,0,,,,,,,,,0,10,10,17,,,,,,,,,,,,,,,,,310.7148863999755,None,,,,,,,,,,,,,,,,,305.25278689997504,None,305.25278689997504,None,None,None,None,None,None,None,hyz1102,001,2021_Nov_02_1204,FigureTest,2021.2.1,59.89594874649438,
,0.9,,Condition\CS+1.BMP,Condition\UCS1.BMP,Sound\scream1.wav,0,0,0,0,,,,,,,,,0,11,11,14,,,,,,,,,,,,,,,,,314.8963852999732,None,,,,,,,,,,,,,,,,,311.8681335999863,None,311.8681335999863,None,313.982627600024,None,313.982627600024,None,313.99221396002685,None,hyz1102,001,2021_Nov_02_1204,FigureTest,2021.2.1,59.89594874649438,
,0.4,,Condition\CS-1.BMP,Condition\black.PNG,Sound\silent.wav,0,0,0,0,,,,,,,,,0,12,12,24,,,,,,,,,,,,,,,,,321.62781179999,None,,,,,,,,,,,,,,,,,316.1247776999953,None,316.1247776999953,None,None,None,None,None,None,None,hyz1102,001,2021_Nov_02_1204,FigureTest,2021.2.1,59.89594874649438,
,-0.1,,Condition\CS+1.BMP,Condition\black.PNG,Sound\silent.wav,0,0,0,0,,,,,,,,,0,13,13,1,,,,,,,,,,,,,,,,,325.9022915000096,None,,,,,,,,,,,,,,,,,322.86856410000473,None,322.86856410000473,None,325.8574469999876,None,325.8574469999876,None,325.8079730402794,None,hyz1102,001,2021_Nov_02_1204,FigureTest,2021.2.1,59.89594874649438,
,0.4,,Condition\CS-1.BMP,Condition\black.PNG,Sound\silent.wav,0,0,0,0,,,,,,,,,0,14,14,19,,,,,,,,,,,,,,,,,330.0650109999697,None,,,,,,,,,,,,,,,,,327.05431969999336,None,327.05431969999336,None,330.0451818999718,None,330.0451818999718,None,330.0263019802747,None,hyz1102,001,2021_Nov_02_1204,FigureTest,2021.2.1,59.89594874649438,
,0.4,,Condition\CS-1.BMP,Condition\black.PNG,Sound\silent.wav,0,0,0,0,,,,,,,,,0,15,15,21,,,,,,,,,,,,,,,,,334.40898559999187,None,,,,,,,,,,,,,,,,,331.38169259997085,None,331.38169259997085,None,334.38888579997,None,334.38888579997,None,334.33010876026236,None,hyz1102,001,2021_Nov_02_1204,FigureTest,2021.2.1,59.89594874649438,
,0.9,,Condition\CS+1.BMP,Condition\UCS1.BMP,Sound\scream1.wav,0,0,0,0,,,,,,,,,0,16,16,11,,,,,,,,,,,,,,,,,338.4695857000188,None,,,,,,,,,,,,,,,,,335.4793022000231,None,335.4793022000231,None,337.58154699997976,None,337.58154699997976,None,337.5921479600249,None,hyz1102,001,2021_Nov_02_1204,FigureTest,2021.2.1,59.89594874649438,
,0.4,,Condition\CS-1.BMP,Condition\black.PNG,Sound\silent.wav,0,0,0,0,,,,,,,,,0,17,17,16,,,,,,,,,,,,,,,,,345.2580911999685,None,,,,,,,,,,,,,,,,,339.7643377999775,None,339.7643377999775,None,None,None,None,None,None,None,hyz1102,001,2021_Nov_02_1204,FigureTest,2021.2.1,59.89594874649438,
,0.4,,Condition\CS-1.BMP,Condition\black.PNG,Sound\silent.wav,0,0,0,0,,,,,,,,,0,18,18,26,,,,,,,,,,,,,,,,,349.4721646999824,None,,,,,,,,,,,,,,,,,346.4406515000155,None,346.4406515000155,None,349.440584499971,None,349.440584499971,None,349.403523760254,None,hyz1102,001,2021_Nov_02_1204,FigureTest,2021.2.1,59.89594874649438,
,0.9,,Condition\CS+1.BMP,Condition\UCS1.BMP,Sound\scream1.wav,0,0,0,0,,,,,,,,,0,19,19,6,,,,,,,,,,,,,,,,,353.6980433000135,None,,,,,,,,,,,,,,,,,350.6927772000199,None,350.6927772000199,None,352.799940900004,None,352.799940900004,None,352.81046416003954,None,hyz1102,001,2021_Nov_02_1204,FigureTest,2021.2.1,59.89594874649438,
,0.9,,Condition\CS+1.BMP,Condition\UCS1.BMP,Sound\scream1.wav,0,0,0,0,,,,,,,,,0,20,20,10,,,,,,,,,,,,,,,,,357.88848419999704,None,,,,,,,,,,,,,,,,,354.8530320000136,None,354.8530320000136,None,356.8620496999938,None,356.8620496999938,None,356.869530740031,None,hyz1102,001,2021_Nov_02_1204,FigureTest,2021.2.1,59.89594874649438,
,0.9,,Condition\CS+1.BMP,Condition\UCS1.BMP,Sound\scream1.wav,0,0,0,0,,,,,,,,,0,21,21,9,,,,,,,,,,,,,,,,,362.0530245999689,None,,,,,,,,,,,,,,,,,359.04095910000615,None,359.04095910000615,None,361.061473299982,None,361.061473299982,None,361.0697913399897,None,hyz1102,001,2021_Nov_02_1204,FigureTest,2021.2.1,59.89594874649438,
,0.4,,Condition\CS-1.BMP,Condition\black.PNG,Sound\silent.wav,0,0,0,0,,,,,,,,,0,22,22,29,,,,,,,,,,,,,,,,,368.68275999999605,None,,,,,,,,,,,,,,,,,363.2380638999748,None,363.2380638999748,None,None,None,None,None,None,None,hyz1102,001,2021_Nov_02_1204,FigureTest,2021.2.1,59.89594874649438,
,0.4,,Condition\CS-1.BMP,Condition\black.PNG,Sound\silent.wav,0,0,0,0,,,,,,,,,0,23,23,23,,,,,,,,,,,,,,,,,373.05672980000963,None,,,,,,,,,,,,,,,,,370.0154969000141,None,370.0154969000141,None,373.00748019997263,None,373.00748019997263,None,372.94777524024244,None,hyz1102,001,2021_Nov_02_1204,FigureTest,2021.2.1,59.89594874649438,
,-0.1,,Condition\CS+1.BMP,Condition\black.PNG,Sound\silent.wav,0,0,0,0,,,,,,,,,0,24,24,2,,,,,,,,,,,,,,,,,377.2071951999678,None,,,,,,,,,,,,,,,,,374.1674145999714,None,374.1674145999714,None,377.1807897000108,None,377.1807897000108,None,377.11158236027694,None,hyz1102,001,2021_Nov_02_1204,FigureTest,2021.2.1,59.89594874649438,
,0.4,,Condition\CS-1.BMP,Condition\black.PNG,Sound\silent.wav,0,0,0,0,,,,,,,,,0,25,25,27,,,,,,,,,,,,,,,,,381.39663199998904,None,,,,,,,,,,,,,,,,,378.3457310000085,None,378.3457310000085,None,381.37196730001597,None,381.37196730001597,None,381.3177648802753,None,hyz1102,001,2021_Nov_02_1204,FigureTest,2021.2.1,59.89594874649438,
,0.4,,Condition\CS-1.BMP,Condition\black.PNG,Sound\silent.wav,0,0,0,0,,,,,,,,,0,26,26,18,,,,,,,,,,,,,,,,,385.722244900011,None,,,,,,,,,,,,,,,,,382.6765583999804,None,382.6765583999804,None,385.70020329998806,None,385.70020329998806,None,385.64233858030053,None,hyz1102,001,2021_Nov_02_1204,FigureTest,2021.2.1,59.89594874649438,
,0.4,,Condition\CS-1.BMP,Condition\black.PNG,Sound\silent.wav,0,0,0,0,,,,,,,,,0,27,27,25,,,,,,,,,,,,,,,,,389.89600090001477,None,,,,,,,,,,,,,,,,,386.8546675000107,None,386.8546675000107,None,389.8702325000195,None,389.8702325000195,None,389.8040451602894,None,hyz1102,001,2021_Nov_02_1204,FigureTest,2021.2.1,59.89594874649438,
,0.9,,Condition\CS+1.BMP,Condition\UCS1.BMP,Sound\scream1.wav,0,0,0,0,,,,,,,,,0,28,28,4,,,,,,,,,,,,,,,,,394.2011396000162,None,,,,,,,,,,,,,,,,,391.2018423000118,None,391.2018423000118,None,393.3149321000092,None,393.3149321000092,None,393.3249250600231,None,hyz1102,001,2021_Nov_02_1204,FigureTest,2021.2.1,59.89594874649438,
,0.9,,Condition\CS+1.BMP,Condition\UCS1.BMP,Sound\scream1.wav,0,0,0,0,,,,,,,,,0,29,29,13,,,,,,,,,,,,,,,,,398.47027950000484,None,,,,,,,,,,,,,,,,,395.4355426999973,None,395.4355426999973,None,397.4456761999754,None,397.4456761999754,None,397.45163353999374,None,hyz1102,001,2021_Nov_02_1204,FigureTest,2021.2.1,59.89594874649438,
,-0.1,Rating\ratingCS+1.png,,,,0,0,0,0,,,,,,,,,,,,,0,0,0,0,,,,,,,,,,,,,,,401.1392329999944,None,401.1392329999944,None,1.6015625,2.4675222999649122,401.1392329999944,None,,,,,,,,,,,,,,,,,,,hyz1102,001,2021_Nov_02_1204,FigureTest,2021.2.1,59.89594874649438,
,0.4,Rating\ratingCS-1.png,,,,0,0,0,0,,,,,,,,,,,,,0,1,1,1,,,,,,,,,,,,,,,405.1558223000029,None,405.1558223000029,None,1.4140624999999998,0.7733138000476174,405.1558223000029,None,,,,,,,,,,,,,,,,,,,hyz1102,001,2021_Nov_02_1204,FigureTest,2021.2.1,59.89594874649438,
,,,,,,0,0,0,0,,,,,,,,,,,,,,,,,,,,,,,,,,,,,,,,,,,,,,,,,,,,,,,,,,,,,,,,,hyz1102,001,2021_Nov_02_1204,FigureTest,2021.2.1,59.89594874649438,
PreCondition\CS+2.BMP,-0.1,,,,,1,0,1,0,0,0,0,0,,,,,,,,,,,,,405.80561699997634,None,405.80561699997634,None,space,1.5046988000394776,405.80561699997634,None,407.3316119000083,None,407.3316119000083,None,409.33434589998797,None,,,,,,,,,,,,,,,,,,,,,,,,,,,hyz1102,001,2021_Nov_02_1204,FigureTest,2021.2.1,59.89594874649438,
PreCondition\CS+2.BMP,-0.1,,,,,1,0,1,0,0,1,1,3,,,,,,,,,,,,,,,,,,,,,410.8565494000213,None,410.8565494000213,412.8505837999983,412.86723550001625,None,,,,,,,,,,,,,,,,,,,,,,,,,,,hyz1102,001,2021_Nov_02_1204,FigureTest,2021.2.1,59.89594874649438,
PreCondition\CS-2.BMP,0.4,,,,,1,0,1,0,0,2,2,8,,,,,,,,,,,,,,,,,,,,,413.9499596999958,None,413.9499596999958,415.9337271999684,415.9495339000132,None,,,,,,,,,,,,,,,,,,,,,,,,,,,hyz1102,001,2021_Nov_02_1204,FigureTest,2021.2.1,59.89594874649438,
PreCondition\CS-2.BMP,0.4,,,,,1,0,1,0,0,3,3,5,,,,,,,,,,,,,,,,,,,,,417.68837749998784,None,417.68837749998784,419.68284459999995,419.6997289999854,None,,,,,,,,,,,,,,,,,,,,,,,,,,,hyz1102,001,2021_Nov_02_1204,FigureTest,2021.2.1,59.89594874649438,
PreCondition\CS+2.BMP,-0.1,,,,,1,0,1,0,0,4,4,2,,,,,,,,,,,,,,,,,,,,,420.93996920000063,None,420.93996920000063,422.932953600015,422.9491310999729,None,,,,,,,,,,,,,,,,,,,,,,,,,,,hyz1102,001,2021_Nov_02_1204,FigureTest,2021.2.1,59.89594874649438,
PreCondition\CS-2.BMP,0.4,,,,,1,0,1,0,0,5,5,7,,,,,,,,,,,,,,,,,,,,,424.2991354999831,None,424.2991354999831,426.281791299989,426.2999773999909,None,,,,,,,,,,,,,,,,,,,,,,,,,,,hyz1102,001,2021_Nov_02_1204,FigureTest,2021.2.1,59.89594874649438,
PreCondition\CS-2.BMP,0.4,,,,,1,0,1,0,0,6,6,6,,,,,,,,,,,,,,,,,,,,,427.64838530001,None,427.64838530001,429.6320426000166,429.648720600002,None,,,,,,,,,,,,,,,,,,,,,,,,,,,hyz1102,001,2021_Nov_02_1204,FigureTest,2021.2.1,59.89594874649438,
PreCondition\CS+2.BMP,-0.1,,,,,1,0,1,0,0,7,7,4,,,,,,,,,,,,,,,,,,,,,430.9510972999851,None,430.9510972999851,432.9323958000168,432.96526839997387,None,,,,,,,,,,,,,,,,,,,,,,,,,,,hyz1102,001,2021_Nov_02_1204,FigureTest,2021.2.1,59.89594874649438,
PreCondition\CS+2.BMP,-0.1,,,,,1,0,1,0,0,8,8,1,,,,,,,,,,,,,,,,,,,,,434.21510359999957,None,434.21510359999957,436.1979883000022,436.2148228000151,None,,,,,,,,,,,,,,,,,,,,,,,,,,,hyz1102,001,2021_Nov_02_1204,FigureTest,2021.2.1,59.89594874649438,
PreCondition\CS-2.BMP,0.4,,,,,1,0,1,0,0,9,9,9,,,,,,,,,,,,,,,,,,,,,437.3843604999711,None,437.3843604999711,439.38165769999614,439.3979543999885,None,,,,,,,,,,,,,,,,,,,,,,,,,,,hyz1102,001,2021_Nov_02_1204,FigureTest,2021.2.1,59.89594874649438,
,-0.1,Rating\ratingCS+2.png,,,,1,0,1,0,,,,,0,0,0,0,,,,,,,,,,,,,,,,,,,,,,,441.95722360000946,None,441.95722360000946,None,1.8359374999999998,10.398769200022798,441.95722360000946,None,,,,,,,,,,,,,,,,,,,hyz1102,001,2021_Nov_02_1204,FigureTest,2021.2.1,59.89594874649438,
,0.4,Rating\ratingCS-2.png,,,,1,0,1,0,,,,,0,1,1,1,,,,,,,,,,,,,,,,,,,,,,,453.85711719997926,None,453.85711719997926,None,1.6249999999999993,0.926108599989675,453.85711719997926,None,,,,,,,,,,,,,,,,,,,hyz1102,001,2021_Nov_02_1204,FigureTest,2021.2.1,59.89594874649438,
,0.9,,Condition\CS+2.BMP,Condition\UCS2.BMP,Sound\scream1.wav,1,0,1,0,,,,,,,,,0,0,0,5,,,,,,,,,,,,,,,,,460.56386180000845,None,,,,,,,,,454.62832630000776,None,454.62832630000776,None,space,2.8263794000376947,454.62832630000776,None,457.48148509999737,None,457.48148509999737,None,459.5121951000183,None,459.5121951000183,None,459.509955940023,None,hyz1102,001,2021_Nov_02_1204,FigureTest,2021.2.1,59.89594874649438,
,0.9,,Condition\CS+2.BMP,Condition\UCS2.BMP,Sound\scream1.wav,1,0,1,0,,,,,,,,,0,1,1,8,,,,,,,,,,,,,,,,,464.82658539997647,None,,,,,,,,,,,,,,,,,461.81160730001284,None,461.81160730001284,None,463.8373115999857,None,463.8373115999857,None,463.8431191400275,None,hyz1102,001,2021_Nov_02_1204,FigureTest,2021.2.1,59.89594874649438,
,0.9,,Condition\CS+2.BMP,Condition\UCS2.BMP,Sound\scream1.wav,1,0,1,0,,,,,,,,,0,2,2,9,,,,,,,,,,,,,,,,,469.04830229998333,None,,,,,,,,,,,,,,,,,465.986555600015,None,465.986555600015,None,468.00352029997157,None,468.00352029997157,None,468.00911524002436,None,hyz1102,001,2021_Nov_02_1204,FigureTest,2021.2.1,59.89594874649438,
,0.9,,Condition\CS+2.BMP,Condition\UCS2.BMP,Sound\scream1.wav,1,0,1,0,,,,,,,,,0,3,3,11,,,,,,,,,,,,,,,,,473.1249668999808,None,,,,,,,,,,,,,,,,,470.06063730001915,None,470.06063730001915,None,472.0862987000146,None,472.0862987000146,None,472.0917991399881,None,hyz1102,001,2021_Nov_02_1204,FigureTest,2021.2.1,59.89594874649438,
,0.4,,Condition\CS-2.BMP,Condition\black.PNG,Sound\silent.wav,1,0,1,0,,,,,,,,,0,4,4,15,,,,,,,,,,,,,,,,,479.707348499971,None,,,,,,,,,,,,,,,,,474.2583336000098,None,474.2583336000098,None,None,None,None,None,None,None,hyz1102,001,2021_Nov_02_1204,FigureTest,2021.2.1,59.89594874649438,
,0.9,,Condition\CS+2.BMP,Condition\UCS2.BMP,Sound\scream1.wav,1,0,1,0,,,,,,,,,0,5,5,10,,,,,,,,,,,,,,,,,483.8963648999925,None,,,,,,,,,,,,,,,,,480.8541525999899,None,480.8541525999899,None,482.9624224000145,None,482.9624224000145,None,482.97096376003464,None,hyz1102,001,2021_Nov_02_1204,FigureTest,2021.2.1,59.89594874649438,
,0.4,,Condition\CS-2.BMP,Condition\black.PNG,Sound\silent.wav,1,0,1,0,,,,,,,,,0,6,6,16,,,,,,,,,,,,,,,,,490.49760950001655,None,,,,,,,,,,,,,,,,,485.04889189999085,None,485.04889189999085,None,None,None,None,None,None,None,hyz1102,001,2021_Nov_02_1204,FigureTest,2021.2.1,59.89594874649438,
,0.4,,Condition\CS-2.BMP,Condition\black.PNG,Sound\silent.wav,1,0,1,0,,,,,,,,,0,7,7,18,,,,,,,,,,,,,,,,,494.96803350001574,None,,,,,,,,,,,,,,,,,491.89256070001284,None,491.89256070001284,None,494.90477429999737,None,494.90477429999737,None,494.84157836028606,None,hyz1102,001,2021_Nov_02_1204,FigureTest,2021.2.1,59.89594874649438,
,0.4,,Condition\CS-2.BMP,Condition\black.PNG,Sound\silent.wav,1,0,1,0,,,,,,,,,0,8,8,19,,,,,,,,,,,,,,,,,499.207829699968,None,,,,,,,,,,,,,,,,,496.14260149997426,None,496.14260149997426,None,499.112886900024,None,499.112886900024,None,499.0580040202825,None,hyz1102,001,2021_Nov_02_1204,FigureTest,2021.2.1,59.89594874649438,
,0.4,,Condition\CS-2.BMP,Condition\black.PNG,Sound\silent.wav,1,0,1,0,,,,,,,,,0,9,9,24,,,,,,,,,,,,,,,,,503.5508541999734,None,,,,,,,,,,,,,,,,,500.48363879998215,None,500.48363879998215,None,503.4617654000176,None,503.4617654000176,None,503.4153360402677,None,hyz1102,001,2021_Nov_02_1204,FigureTest,2021.2.1,59.89594874649438,
,0.9,,Condition\CS+2.BMP,Condition\UCS2.BMP,Sound\scream1.wav,1,0,1,0,,,,,,,,,0,10,10,6,,,,,,,,,,,,,,,,,507.89185820001876,None,,,,,,,,,,,,,,,,,504.86470410000766,None,504.86470410000766,None,506.97325639997143,None,506.97325639997143,None,506.9813714600634,None,hyz1102,001,2021_Nov_02_1204,FigureTest,2021.2.1,59.89594874649438,
,0.9,,Condition\CS+2.BMP,Condition\UCS2.BMP,Sound\scream1.wav,1,0,1,0,,,,,,,,,0,11,11,3,,,,,,,,,,,,,,,,,512.1296990999836,None,,,,,,,,,,,,,,,,,509.0427947000135,None,509.0427947000135,None,511.0511341000092,None,511.0511341000092,None,511.05957123999247,None,hyz1102,001,2021_Nov_02_1204,FigureTest,2021.2.1,59.89594874649438,
,0.9,,Condition\CS+2.BMP,Condition\UCS2.BMP,Sound\scream1.wav,1,0,1,0,,,,,,,,,0,12,12,4,,,,,,,,,,,,,,,,,516.5522174999933,None,,,,,,,,,,,,,,,,,513.4785305999685,None,513.4785305999685,None,515.5040415999829,None,515.5040415999829,None,515.5097452399903,None,hyz1102,001,2021_Nov_02_1204,FigureTest,2021.2.1,59.89594874649438,
,0.4,,Condition\CS-2.BMP,Condition\black.PNG,Sound\silent.wav,1,0,1,0,,,,,,,,,0,13,13,23,,,,,,,,,,,,,,,,,523.4155807999778,None,,,,,,,,,,,,,,,,,517.9147866999847,None,517.9147866999847,None,None,None,None,None,None,None,hyz1102,001,2021_Nov_02_1204,FigureTest,2021.2.1,59.89594874649438,
,-0.1,,Condition\CS+2.BMP,Condition\black.PNG,Sound\silent.wav,1,0,1,0,,,,,,,,,0,14,14,1,,,,,,,,,,,,,,,,,527.7016434000107,None,,,,,,,,,,,,,,,,,524.66416450002,None,524.66416450002,None,527.6561146000167,None,527.6561146000167,None,527.5966122402576,None,hyz1102,001,2021_Nov_02_1204,FigureTest,2021.2.1,59.89594874649438,
,0.4,,Condition\CS-2.BMP,Condition\black.PNG,Sound\silent.wav,1,0,1,0,,,,,,,,,0,15,15,22,,,,,,,,,,,,,,,,,531.9801127000246,None,,,,,,,,,,,,,,,,,528.9437660999829,None,528.9437660999829,None,531.9174112000037,None,531.9174112000037,None,531.8594340202748,None,hyz1102,001,2021_Nov_02_1204,FigureTest,2021.2.1,59.89594874649438,
,0.4,,Condition\CS-2.BMP,Condition\black.PNG,Sound\silent.wav,1,0,1,0,,,,,,,,,0,16,16,17,,,,,,,,,,,,,,,,,536.3247586999787,None,,,,,,,,,,,,,,,,,533.3204596000141,None,533.3204596000141,None,536.2716519000242,None,536.2716519000242,None,536.252425640251,None,hyz1102,001,2021_Nov_02_1204,FigureTest,2021.2.1,59.89594874649438,
,0.9,,Condition\CS+2.BMP,Condition\UCS2.BMP,Sound\scream1.wav,1,0,1,0,,,,,,,,,0,17,17,13,,,,,,,,,,,,,,,,,540.4057152000023,None,,,,,,,,,,,,,,,,,537.327089599974,None,537.327089599974,None,539.4455303999712,None,539.4455303999712,None,539.4413592400495,None,hyz1102,001,2021_Nov_02_1204,FigureTest,2021.2.1,59.89594874649438,
,0.9,,Condition\CS+2.BMP,Condition\UCS2.BMP,Sound\scream1.wav,1,0,1,0,,,,,,,,,0,18,18,12,,,,,,,,,,,,,,,,,544.4795292000053,None,,,,,,,,,,,,,,,,,541.45293520001,None,541.45293520001,None,543.4763852999895,None,543.4763852999895,None,543.4818335400312,None,hyz1102,001,2021_Nov_02_1204,FigureTest,2021.2.1,59.89594874649438,
,0.4,,Condition\CS-2.BMP,Condition\black.PNG,Sound\silent.wav,1,0,1,0,,,,,,,,,0,19,19,28,,,,,,,,,,,,,,,,,551.1491318999906,None,,,,,,,,,,,,,,,,,545.6816772000166,None,545.6816772000166,None,None,None,None,None,None,None,hyz1102,001,2021_Nov_02_1204,FigureTest,2021.2.1,59.89594874649438,
,0.4,,Condition\CS-2.BMP,Condition\black.PNG,Sound\silent.wav,1,0,1,0,,,,,,,,,0,20,20,25,,,,,,,,,,,,,,,,,555.322468600003,None,,,,,,,,,,,,,,,,,552.3000794000109,None,552.3000794000109,None,555.2816665999708,None,555.2816665999708,None,555.2151342202909,None,hyz1102,001,2021_Nov_02_1204,FigureTest,2021.2.1,59.89594874649438,
,-0.1,,Condition\CS+2.BMP,Condition\black.PNG,Sound\silent.wav,1,0,1,0,,,,,,,,,0,21,21,0,,,,,,,,,,,,,,,,,559.4726784999948,None,,,,,,,,,,,,,,,,,556.4530600999715,None,556.4530600999715,None,559.4475450000027,None,559.4475450000027,None,559.3852573402808,None,hyz1102,001,2021_Nov_02_1204,FigureTest,2021.2.1,59.89594874649438,
,0.4,,Condition\CS-2.BMP,Condition\black.PNG,Sound\silent.wav,1,0,1,0,,,,,,,,,0,22,22,20,,,,,,,,,,,,,,,,,563.6462863999768,None,,,,,,,,,,,,,,,,,560.636338500015,None,560.636338500015,None,563.6246460999828,None,563.6246460999828,None,563.5510461202706,None,hyz1102,001,2021_Nov_02_1204,FigureTest,2021.2.1,59.89594874649438,
,0.4,,Condition\CS-2.BMP,Condition\black.PNG,Sound\silent.wav,1,0,1,0,,,,,,,,,0,23,23,29,,,,,,,,,,,,,,,,,567.9772574999952,None,,,,,,,,,,,,,,,,,564.9010329999728,None,564.9010329999728,None,567.89845649997,None,567.89845649997,None,567.8451445402577,None,hyz1102,001,2021_Nov_02_1204,FigureTest,2021.2.1,59.89594874649438,
,0.4,,Condition\CS-2.BMP,Condition\black.PNG,Sound\silent.wav,1,0,1,0,,,,,,,,,0,24,24,21,,,,,,,,,,,,,,,,,572.2882567999768,None,,,,,,,,,,,,,,,,,569.2180650000228,None,569.2180650000228,None,572.2028884000028,None,572.2028884000028,None,572.1338145202375,None,hyz1102,001,2021_Nov_02_1204,FigureTest,2021.2.1,59.89594874649438,
,0.4,,Condition\CS-2.BMP,Condition\black.PNG,Sound\silent.wav,1,0,1,0,,,,,,,,,0,25,25,26,,,,,,,,,,,,,,,,,576.7242681999924,None,,,,,,,,,,,,,,,,,573.690638799977,None,573.690638799977,None,576.6813601999893,None,576.6813601999893,None,576.6052549202344,None,hyz1102,001,2021_Nov_02_1204,FigureTest,2021.2.1,59.89594874649438,
,0.4,,Condition\CS-2.BMP,Condition\black.PNG,Sound\silent.wav,1,0,1,0,,,,,,,,,0,26,26,27,,,,,,,,,,,,,,,,,580.9697401999729,None,,,,,,,,,,,,,,,,,577.9421614999883,None,577.9421614999883,None,580.9425759000005,None,580.9425759000005,None,580.8728620202513,None,hyz1102,001,2021_Nov_02_1204,FigureTest,2021.2.1,59.89594874649438,
,-0.1,,Condition\CS+2.BMP,Condition\black.PNG,Sound\silent.wav,1,0,1,0,,,,,,,,,0,27,27,2,,,,,,,,,,,,,,,,,585.0768577000126,None,,,,,,,,,,,,,,,,,582.0627055999939,None,582.0627055999939,None,585.0520113999955,None,585.0520113999955,None,584.978781220247,None,hyz1102,001,2021_Nov_02_1204,FigureTest,2021.2.1,59.89594874649438,
,0.9,,Condition\CS+2.BMP,Condition\UCS2.BMP,Sound\scream1.wav,1,0,1,0,,,,,,,,,0,28,28,7,,,,,,,,,,,,,,,,,589.2849512000103,None,,,,,,,,,,,,,,,,,586.2741293999716,None,586.2741293999716,None,588.3808379999828,None,588.3808379999828,None,588.3897976600448,None,hyz1102,001,2021_Nov_02_1204,FigureTest,2021.2.1,59.89594874649438,
,0.9,,Condition\CS+2.BMP,Condition\UCS2.BMP,Sound\scream1.wav,1,0,1,0,,,,,,,,,0,29,29,14,,,,,,,,,,,,,,,,,593.5575040999684,None,,,,,,,,,,,,,,,,,590.5004888999974,None,590.5004888999974,None,592.5179343000054,None,592.5179343000054,None,592.5177362400107,None,hyz1102,001,2021_Nov_02_1204,FigureTest,2021.2.1,59.89594874649438,
,-0.1,Rating\ratingCS+2.png,,,,1,0,1,0,,,,,,,,,,,,,0,0,0,0,,,,,,,,,,,,,,,596.3158726000111,None,596.3158726000111,None,2.015625,4.507170400000177,596.3158726000111,None,,,,,,,,,,,,,,,,,,,hyz1102,001,2021_Nov_02_1204,FigureTest,2021.2.1,59.89594874649438,
,0.4,Rating\ratingCS-2.png,,,,1,0,1,0,,,,,,,,,,,,,0,1,1,1,,,,,,,,,,,,,,,602.3538721000077,None,602.3538721000077,None,1.6015625,0.9059612000128254,602.3538721000077,None,,,,,,,,,,,,,,,,,,,hyz1102,001,2021_Nov_02_1204,FigureTest,2021.2.1,59.89594874649438,
,,,,,,1,0,1,0,,,,,,,,,,,,,,,,,,,,,,,,,,,,,,,,,,,,,,,,,,,,,,,,,,,,,,,,,hyz1102,001,2021_Nov_02_1204,FigureTest,2021.2.1,59.89594874649438,
,,,,,,,,,,,,,,,,,,,,,,,,,,603.086849400017,None,603.086849400017,None,space,2.175138099992182,603.086849400017,None,,,,,,,,,,,,,,,,,,,,,,,,,,,,,,,,,,,,,,,
