PreCondName,TrgCol,ratingName,CSName,UCSName,SoundName,trials_2.thisRepN,trials_2.thisTrialN,trials_2.thisN,trials_2.thisIndex,PreCond1.thisRepN,PreCond1.thisTrialN,PreCond1.thisN,PreCond1.thisIndex,RatingPreCond1.thisRepN,RatingPreCond1.thisTrialN,RatingPreCond1.thisN,RatingPreCond1.thisIndex,Cond1.thisRepN,Cond1.thisTrialN,Cond1.thisN,Cond1.thisIndex,RatingCond1.thisRepN,RatingCond1.thisTrialN,RatingCond1.thisN,RatingCond1.thisIndex,InstrBkg.started,InstrBkg.stopped,TagFig.started,TagFig.stopped,InstrKeyResp.keys,InstrKeyResp.rt,InstrKeyResp.started,InstrKeyResp.stopped,precondBkg.started,precondBkg.stopped,imagePreCond.started,imagePreCond.stopped,BlankBkg.started,BlankBkg.stopped,Bkg.started,Bkg.stopped,image.started,image.stopped,Scale.response,Scale.rt,Scale.started,Scale.stopped,InstrBkg2.started,InstrBkg2.stopped,TagFig2.started,TagFig2.stopped,key_resp.keys,key_resp.rt,key_resp.started,key_resp.stopped,CSBkg.started,CSBkg.stopped,CS_image.started,CS_image.stopped,UCSBkg.started,UCSBkg.stopped,UCS_image.started,UCS_image.stopped,sound_1.started,sound_1.stopped,participant,session,date,expName,psychopyVersion,frameRate,
PreCondition\CS-1.BMP,0.4,,,,,0,0,0,0,0,0,0,5,,,,,,,,,,,,,35.386204099981114,None,35.386204099981114,None,space,1.5601848000078462,35.386204099981114,None,36.985227299970575,None,36.985227299970575,None,38.98231230000965,None,,,,,,,,,,,,,,,,,,,,,,,,,,,hyz1102,001,2021_Nov_02_1133,FigureTest,2021.2.1,59.92042568263299,
PreCondition\CS-1.BMP,0.4,,,,,0,0,0,0,0,1,1,6,,,,,,,,,,,,,,,,,,,,,40.314667299971916,None,40.314667299971916,42.300234799971804,42.31619599997066,None,,,,,,,,,,,,,,,,,,,,,,,,,,,hyz1102,001,2021_Nov_02_1133,FigureTest,2021.2.1,59.92042568263299,
PreCondition\CS+1.BMP,-0.1,,,,,0,0,0,0,0,2,2,1,,,,,,,,,,,,,,,,,,,,,43.445131800021045,None,43.445131800021045,45.43136799999047,45.44762819999596,None,,,,,,,,,,,,,,,,,,,,,,,,,,,hyz1102,001,2021_Nov_02_1133,FigureTest,2021.2.1,59.92042568263299,
PreCondition\CS+1.BMP,-0.1,,,,,0,0,0,0,0,3,3,3,,,,,,,,,,,,,,,,,,,,,46.86642069998197,None,46.86642069998197,48.86415380000835,48.88080440001795,None,,,,,,,,,,,,,,,,,,,,,,,,,,,hyz1102,001,2021_Nov_02_1133,FigureTest,2021.2.1,59.92042568263299,
PreCondition\CS-1.BMP,0.4,,,,,0,0,0,0,0,4,4,8,,,,,,,,,,,,,,,,,,,,,50.17480729997624,None,50.17480729997624,52.16390859999228,52.180770299979486,None,,,,,,,,,,,,,,,,,,,,,,,,,,,hyz1102,001,2021_Nov_02_1133,FigureTest,2021.2.1,59.92042568263299,
PreCondition\CS+1.BMP,-0.1,,,,,0,0,0,0,0,5,5,2,,,,,,,,,,,,,,,,,,,,,53.44248039997183,None,53.44248039997183,55.430289099982474,55.447011600015685,None,,,,,,,,,,,,,,,,,,,,,,,,,,,hyz1102,001,2021_Nov_02_1133,FigureTest,2021.2.1,59.92042568263299,
PreCondition\CS+1.BMP,-0.1,,,,,0,0,0,0,0,6,6,0,,,,,,,,,,,,,,,,,,,,,56.72981869999785,None,56.72981869999785,58.71318329998758,58.72968599997694,None,,,,,,,,,,,,,,,,,,,,,,,,,,,hyz1102,001,2021_Nov_02_1133,FigureTest,2021.2.1,59.92042568263299,
PreCondition\CS-1.BMP,0.4,,,,,0,0,0,0,0,7,7,7,,,,,,,,,,,,,,,,,,,,,59.88411649997579,None,59.88411649997579,None,61.879449100000784,None,,,,,,,,,,,,,,,,,,,,,,,,,,,hyz1102,001,2021_Nov_02_1133,FigureTest,2021.2.1,59.92042568263299,
PreCondition\CS-1.BMP,0.4,,,,,0,0,0,0,0,8,8,9,,,,,,,,,,,,,,,,,,,,,63.081277399964165,None,63.081277399964165,65.07953210000414,65.09576709999237,None,,,,,,,,,,,,,,,,,,,,,,,,,,,hyz1102,001,2021_Nov_02_1133,FigureTest,2021.2.1,59.92042568263299,
PreCondition\CS+1.BMP,-0.1,,,,,0,0,0,0,0,9,9,4,,,,,,,,,,,,,,,,,,,,,66.21498350001639,None,66.21498350001639,None,68.21285650000209,None,,,,,,,,,,,,,,,,,,,,,,,,,,,hyz1102,001,2021_Nov_02_1133,FigureTest,2021.2.1,59.92042568263299,
,-0.1,Rating\ratingCS+1.png,,,,0,0,0,0,,,,,0,0,0,0,,,,,,,,,,,,,,,,,,,,,,,73.28758230002131,None,73.28758230002131,None,1.4999999999999998,2.724865399999544,73.28758230002131,None,,,,,,,,,,,,,,,,,,,hyz1102,001,2021_Nov_02_1133,FigureTest,2021.2.1,59.92042568263299,
,0.4,Rating\ratingCS-1.png,,,,0,0,0,0,,,,,0,1,1,1,,,,,,,,,,,,,,,,,,,,,,,77.45884370000567,None,77.45884370000567,None,1.5703125000000002,1.4085669000050984,77.45884370000567,None,,,,,,,,,,,,,,,,,,,hyz1102,001,2021_Nov_02_1133,FigureTest,2021.2.1,59.92042568263299,
,0.4,,Condition\CS-1.BMP,Condition\black.PNG,Sound\silent.wav,0,0,0,0,,,,,,,,,0,0,0,24,,,,,,,,,,,,,,,,,87.33192680001957,None,,,,,,,,,78.85151649999898,None,78.85151649999898,None,space,2.982421299966518,78.85151649999898,None,81.89074589998927,None,81.89074589998927,None,None,None,None,None,None,None,hyz1102,001,2021_Nov_02_1133,FigureTest,2021.2.1,59.92042568263299,
,0.4,,Condition\CS-1.BMP,Condition\black.PNG,Sound\silent.wav,0,0,0,0,,,,,,,,,0,1,1,28,,,,,,,,,,,,,,,,,91.6959112000186,None,,,,,,,,,,,,,,,,,88.6631241000141,None,88.6631241000141,None,91.67454520001775,None,91.67454520001775,None,91.61369067991619,None,hyz1102,001,2021_Nov_02_1133,FigureTest,2021.2.1,59.92042568263299,
,0.9,,Condition\CS+1.BMP,Condition\UCS1.BMP,Sound\scream1.wav,0,0,0,0,,,,,,,,,0,2,2,11,,,,,,,,,,,,,,,,,95.84236900001997,None,,,,,,,,,,,,,,,,,92.84736680000788,None,92.84736680000788,None,94.96173899999121,None,94.96173899999121,None,94.96287968000398,None,hyz1102,001,2021_Nov_02_1133,FigureTest,2021.2.1,59.92042568263299,
,-0.1,,Condition\CS+1.BMP,Condition\black.PNG,Sound\silent.wav,0,0,0,0,,,,,,,,,0,3,3,0,,,,,,,,,,,,,,,,,102.35093840002082,None,,,,,,,,,,,,,,,,,96.88136449997546,None,96.88136449997546,None,None,None,None,None,None,None,hyz1102,001,2021_Nov_02_1133,FigureTest,2021.2.1,59.92042568263299,
,0.9,,Condition\CS+1.BMP,Condition\UCS1.BMP,Sound\scream1.wav,0,0,0,0,,,,,,,,,0,4,4,4,,,,,,,,,,,,,,,,,106.59115429996746,None,,,,,,,,,,,,,,,,,103.5665125999949,None,103.5665125999949,None,105.67709989997093,None,105.67709989997093,None,105.68341567998287,None,hyz1102,001,2021_Nov_02_1133,FigureTest,2021.2.1,59.92042568263299,
,0.4,,Condition\CS-1.BMP,Condition\black.PNG,Sound\silent.wav,0,0,0,0,,,,,,,,,0,5,5,18,,,,,,,,,,,,,,,,,113.32950759999221,None,,,,,,,,,,,,,,,,,107.88729490002152,None,107.88729490002152,None,None,None,None,None,None,None,hyz1102,001,2021_Nov_02_1133,FigureTest,2021.2.1,59.92042568263299,
,0.4,,Condition\CS-1.BMP,Condition\black.PNG,Sound\silent.wav,0,0,0,0,,,,,,,,,0,6,6,17,,,,,,,,,,,,,,,,,117.50427709997166,None,,,,,,,,,,,,,,,,,114.41879680001875,None,114.41879680001875,None,117.43123980000382,None,117.43123980000382,None,117.36885797991418,None,hyz1102,001,2021_Nov_02_1133,FigureTest,2021.2.1,59.92042568263299,
,0.9,,Condition\CS+1.BMP,Condition\UCS1.BMP,Sound\scream1.wav,0,0,0,0,,,,,,,,,0,7,7,12,,,,,,,,,,,,,,,,,121.66029769997112,None,,,,,,,,,,,,,,,,,118.66218539996771,None,118.66218539996771,None,120.77339749998646,None,120.77339749998646,None,120.78464827997378,None,hyz1102,001,2021_Nov_02_1133,FigureTest,2021.2.1,59.92042568263299,
,0.9,,Condition\CS+1.BMP,Condition\UCS1.BMP,Sound\scream1.wav,0,0,0,0,,,,,,,,,0,8,8,6,,,,,,,,,,,,,,,,,125.93425250001019,None,,,,,,,,,,,,,,,,,122.84591969999019,None,122.84591969999019,None,124.86880799999926,None,124.86880799999926,None,124.8769181199954,None,hyz1102,001,2021_Nov_02_1133,FigureTest,2021.2.1,59.92042568263299,
,0.4,,Condition\CS-1.BMP,Condition\black.PNG,Sound\silent.wav,0,0,0,0,,,,,,,,,0,9,9,20,,,,,,,,,,,,,,,,,132.50781350000761,None,,,,,,,,,,,,,,,,,127.05607340001734,None,127.05607340001734,None,None,None,None,None,None,None,hyz1102,001,2021_Nov_02_1133,FigureTest,2021.2.1,59.92042568263299,
,0.4,,Condition\CS-1.BMP,Condition\black.PNG,Sound\silent.wav,0,0,0,0,,,,,,,,,0,10,10,25,,,,,,,,,,,,,,,,,136.65353010001127,None,,,,,,,,,,,,,,,,,133.60740179999266,None,133.60740179999266,None,136.6138564000139,None,136.6138564000139,None,136.5410125699185,None,hyz1102,001,2021_Nov_02_1133,FigureTest,2021.2.1,59.92042568263299,
,0.9,,Condition\CS+1.BMP,Condition\UCS1.BMP,Sound\scream1.wav,0,0,0,0,,,,,,,,,0,11,11,7,,,,,,,,,,,,,,,,,140.92763799999375,None,,,,,,,,,,,,,,,,,137.89660269999877,None,137.89660269999877,None,140.0083786000032,None,140.0083786000032,None,140.01925227997125,None,hyz1102,001,2021_Nov_02_1133,FigureTest,2021.2.1,59.92042568263299,
,-0.1,,Condition\CS+1.BMP,Condition\black.PNG,Sound\silent.wav,0,0,0,0,,,,,,,,,0,12,12,2,,,,,,,,,,,,,,,,,147.56483200000366,None,,,,,,,,,,,,,,,,,142.128240799997,None,142.128240799997,None,None,None,None,None,None,None,hyz1102,001,2021_Nov_02_1133,FigureTest,2021.2.1,59.92042568263299,
,0.4,,Condition\CS-1.BMP,Condition\black.PNG,Sound\silent.wav,0,0,0,0,,,,,,,,,0,13,13,19,,,,,,,,,,,,,,,,,151.91636819997802,None,,,,,,,,,,,,,,,,,148.88292780000484,None,148.88292780000484,None,151.89587539999047,None,151.89587539999047,None,151.83161697993054,None,hyz1102,001,2021_Nov_02_1133,FigureTest,2021.2.1,59.92042568263299,
,0.9,,Condition\CS+1.BMP,Condition\UCS1.BMP,Sound\scream1.wav,0,0,0,0,,,,,,,,,0,14,14,8,,,,,,,,,,,,,,,,,156.35422979999566,None,,,,,,,,,,,,,,,,,153.30944859999,None,153.30944859999,None,155.4222314999788,None,155.4222314999788,None,155.43344077999936,None,hyz1102,001,2021_Nov_02_1133,FigureTest,2021.2.1,59.92042568263299,
,0.9,,Condition\CS+1.BMP,Condition\UCS1.BMP,Sound\scream1.wav,0,0,0,0,,,,,,,,,0,15,15,3,,,,,,,,,,,,,,,,,160.6581500999746,None,,,,,,,,,,,,,,,,,157.59189199999673,None,157.59189199999673,None,159.6028398000053,None,159.6028398000053,None,159.6088501199614,None,hyz1102,001,2021_Nov_02_1133,FigureTest,2021.2.1,59.92042568263299,
,0.4,,Condition\CS-1.BMP,Condition\black.PNG,Sound\silent.wav,0,0,0,0,,,,,,,,,0,16,16,26,,,,,,,,,,,,,,,,,167.28676589997485,None,,,,,,,,,,,,,,,,,161.82351429999107,None,161.82351429999107,None,None,None,None,None,None,None,hyz1102,001,2021_Nov_02_1133,FigureTest,2021.2.1,59.92042568263299,
,0.9,,Condition\CS+1.BMP,Condition\UCS1.BMP,Sound\scream1.wav,0,0,0,0,,,,,,,,,0,17,17,13,,,,,,,,,,,,,,,,,171.49711200001184,None,,,,,,,,,,,,,,,,,168.50059939996572,None,168.50059939996572,None,170.61063539999304,None,170.61063539999304,None,170.6193163799704,None,hyz1102,001,2021_Nov_02_1133,FigureTest,2021.2.1,59.92042568263299,
,-0.1,,Condition\CS+1.BMP,Condition\black.PNG,Sound\silent.wav,0,0,0,0,,,,,,,,,0,18,18,1,,,,,,,,,,,,,,,,,178.12797079997836,None,,,,,,,,,,,,,,,,,172.64794729999267,None,172.64794729999267,None,None,None,None,None,None,None,hyz1102,001,2021_Nov_02_1133,FigureTest,2021.2.1,59.92042568263299,
,0.9,,Condition\CS+1.BMP,Condition\UCS1.BMP,Sound\scream1.wav,0,0,0,0,,,,,,,,,0,19,19,10,,,,,,,,,,,,,,,,,182.3542273999774,None,,,,,,,,,,,,,,,,,179.2786484999815,None,179.2786484999815,None,181.39024809998227,None,181.39024809998227,None,181.39554777999874,None,hyz1102,001,2021_Nov_02_1133,FigureTest,2021.2.1,59.92042568263299,
,0.9,,Condition\CS+1.BMP,Condition\UCS1.BMP,Sound\scream1.wav,0,0,0,0,,,,,,,,,0,20,20,14,,,,,,,,,,,,,,,,,186.50890630000504,None,,,,,,,,,,,,,,,,,183.44560939999064,None,183.44560939999064,None,185.4719934000168,None,185.4719934000168,None,185.47713081996187,None,hyz1102,001,2021_Nov_02_1133,FigureTest,2021.2.1,59.92042568263299,
,0.4,,Condition\CS-1.BMP,Condition\black.PNG,Sound\silent.wav,0,0,0,0,,,,,,,,,0,21,21,15,,,,,,,,,,,,,,,,,193.09706319996621,None,,,,,,,,,,,,,,,,,187.5544843999669,None,187.5544843999669,None,None,None,None,None,None,None,hyz1102,001,2021_Nov_02_1133,FigureTest,2021.2.1,59.92042568263299,
,0.4,,Condition\CS-1.BMP,Condition\black.PNG,Sound\silent.wav,0,0,0,0,,,,,,,,,0,22,22,16,,,,,,,,,,,,,,,,,197.26734069996746,None,,,,,,,,,,,,,,,,,194.22759059997043,None,194.22759059997043,None,197.23694610001985,None,197.23694610001985,None,197.16139966995104,None,hyz1102,001,2021_Nov_02_1133,FigureTest,2021.2.1,59.92042568263299,
,0.9,,Condition\CS+1.BMP,Condition\UCS1.BMP,Sound\scream1.wav,0,0,0,0,,,,,,,,,0,23,23,5,,,,,,,,,,,,,,,,,201.4918847999652,None,,,,,,,,,,,,,,,,,198.4811928999843,None,198.4811928999843,None,200.5966986999847,None,200.5966986999847,None,200.60677907996578,None,hyz1102,001,2021_Nov_02_1133,FigureTest,2021.2.1,59.92042568263299,
,0.4,,Condition\CS-1.BMP,Condition\black.PNG,Sound\silent.wav,0,0,0,0,,,,,,,,,0,24,24,22,,,,,,,,,,,,,,,,,208.11877509998158,None,,,,,,,,,,,,,,,,,202.65717610000866,None,202.65717610000866,None,None,None,None,None,None,None,hyz1102,001,2021_Nov_02_1133,FigureTest,2021.2.1,59.92042568263299,
,0.9,,Condition\CS+1.BMP,Condition\UCS1.BMP,Sound\scream1.wav,0,0,0,0,,,,,,,,,0,25,25,9,,,,,,,,,,,,,,,,,212.35301540000364,None,,,,,,,,,,,,,,,,,209.28048610000405,None,209.28048610000405,None,211.39276239997707,None,211.39276239997707,None,211.40240777996368,None,hyz1102,001,2021_Nov_02_1133,FigureTest,2021.2.1,59.92042568263299,
,0.4,,Condition\CS-1.BMP,Condition\black.PNG,Sound\silent.wav,0,0,0,0,,,,,,,,,0,26,26,21,,,,,,,,,,,,,,,,,219.00510850001592,None,,,,,,,,,,,,,,,,,213.54446379997535,None,213.54446379997535,None,None,None,None,None,None,None,hyz1102,001,2021_Nov_02_1133,FigureTest,2021.2.1,59.92042568263299,
,0.4,,Condition\CS-1.BMP,Condition\black.PNG,Sound\silent.wav,0,0,0,0,,,,,,,,,0,27,27,23,,,,,,,,,,,,,,,,,223.16681670001708,None,,,,,,,,,,,,,,,,,220.1042423999752,None,220.1042423999752,None,223.12362259998918,None,223.12362259998918,None,223.07154128995606,None,hyz1102,001,2021_Nov_02_1133,FigureTest,2021.2.1,59.92042568263299,
,0.4,,Condition\CS-1.BMP,Condition\black.PNG,Sound\silent.wav,0,0,0,0,,,,,,,,,0,28,28,27,,,,,,,,,,,,,,,,,227.28109000000404,None,,,,,,,,,,,,,,,,,224.19478610000806,None,224.19478610000806,None,227.19419110001763,None,227.19419110001763,None,227.14750057990895,None,hyz1102,001,2021_Nov_02_1133,FigureTest,2021.2.1,59.92042568263299,
,0.4,,Condition\CS-1.BMP,Condition\black.PNG,Sound\silent.wav,0,0,0,0,,,,,,,,,0,29,29,29,,,,,,,,,,,,,,,,,231.77207549999002,None,,,,,,,,,,,,,,,,,228.7482152999728,None,228.7482152999728,None,231.73269679996883,None,231.73269679996883,None,231.68089356995768,None,hyz1102,001,2021_Nov_02_1133,FigureTest,2021.2.1,59.92042568263299,
,-0.1,Rating\ratingCS+1.png,,,,0,0,0,0,,,,,,,,,,,,,0,0,0,0,,,,,,,,,,,,,,,234.4154688999988,None,234.4154688999988,None,1.2343750000000002,5.591085400024895,234.4154688999988,None,,,,,,,,,,,,,,,,,,,hyz1102,001,2021_Nov_02_1133,FigureTest,2021.2.1,59.92042568263299,
,0.4,Rating\ratingCS-1.png,,,,0,0,0,0,,,,,,,,,,,,,0,1,1,1,,,,,,,,,,,,,,,241.6100460999878,None,241.6100460999878,None,1.4609374999999996,0.7340794000192545,241.6100460999878,None,,,,,,,,,,,,,,,,,,,hyz1102,001,2021_Nov_02_1133,FigureTest,2021.2.1,59.92042568263299,
,,,,,,0,0,0,0,,,,,,,,,,,,,,,,,,,,,,,,,,,,,,,,,,,,,,,,,,,,,,,,,,,,,,,,,hyz1102,001,2021_Nov_02_1133,FigureTest,2021.2.1,59.92042568263299,
,,,,,,,,,,,,,,,,,,,,,,,,,,242.1943618999794,None,242.1943618999794,None,space,15.967813899973407,242.1943618999794,None,,,,,,,,,,,,,,,,,,,,,,,,,,,,,,,,,,,,,,,
