ExtName,TrgCol,ratingName,Session_Extinction.thisRepN,Session_Extinction.thisTrialN,Session_Extinction.thisN,Session_Extinction.thisIndex,Extinction.thisRepN,Extinction.thisTrialN,Extinction.thisN,Extinction.thisIndex,RatingExt.thisRepN,RatingExt.thisTrialN,RatingExt.thisN,RatingExt.thisIndex,InstrBkg3.started,InstrBkg3.stopped,TagFig3.started,TagFig3.stopped,key_resp_3.keys,key_resp_3.rt,key_resp_3.started,key_resp_3.stopped,ExtBkg.started,ExtBkg.stopped,Ext_image.started,Ext_image.stopped,BlankBkg.started,BlankBkg.stopped,Bkg.started,Bkg.stopped,image.started,image.stopped,Scale.response,Scale.rt,Scale.started,Scale.stopped,EndTxt.started,EndTxt.stopped,participant,session,date,expName,psychopyVersion,frameRate,
,,,,,,,,,,,,,,,22.46601139998529,None,22.46601139998529,None,space,2.7017515000188723,22.46601139998529,None,,,,,,,,,,,,,,,,,hyz1102,001,2021_Nov_02_1627,FigureTest,2021.2.1,60.10706270361948,
Extinction\CS+1.BMP,-0.1,,0,0,0,0,0,0,0,4,,,,,,,,,,,,,25.211916100000963,None,25.211916100000963,None,26.209176999982446,None,,,,,,,,,,,hyz1102,001,2021_Nov_02_1627,FigureTest,2021.2.1,60.10706270361948,
Extinction\CS-1.BMP,0.4,,0,0,0,0,0,1,1,15,,,,,,,,,,,,,26.449883900000714,None,26.449883900000714,None,27.443793000013102,None,,,,,,,,,,,hyz1102,001,2021_Nov_02_1627,FigureTest,2021.2.1,60.10706270361948,
Extinction\CS-1.BMP,0.4,,0,0,0,0,0,2,2,19,,,,,,,,,,,,,27.59233159996802,None,27.59233159996802,None,28.59350389998872,None,,,,,,,,,,,hyz1102,001,2021_Nov_02_1627,FigureTest,2021.2.1,60.10706270361948,
Extinction\CS-1.BMP,0.4,,0,0,0,0,0,3,3,16,,,,,,,,,,,,,28.742245099972934,None,28.742245099972934,None,29.742199199972674,None,,,,,,,,,,,hyz1102,001,2021_Nov_02_1627,FigureTest,2021.2.1,60.10706270361948,
Extinction\CS-1.BMP,0.4,,0,0,0,0,0,4,4,11,,,,,,,,,,,,,29.842033299966715,None,29.842033299966715,None,30.842417299980298,None,,,,,,,,,,,hyz1102,001,2021_Nov_02_1627,FigureTest,2021.2.1,60.10706270361948,
Extinction\CS-1.BMP,0.4,,0,0,0,0,0,5,5,18,,,,,,,,,,,,,30.958844400011003,None,30.958844400011003,None,31.958619999990333,None,,,,,,,,,,,hyz1102,001,2021_Nov_02_1627,FigureTest,2021.2.1,60.10706270361948,
Extinction\CS-1.BMP,0.4,,0,0,0,0,0,6,6,12,,,,,,,,,,,,,32.01236459997017,None,32.01236459997017,None,33.025181800010614,None,,,,,,,,,,,hyz1102,001,2021_Nov_02_1627,FigureTest,2021.2.1,60.10706270361948,
Extinction\CS+1.BMP,-0.1,,0,0,0,0,0,7,7,8,,,,,,,,,,,,,33.16874160000589,None,33.16874160000589,None,34.15830179996556,None,,,,,,,,,,,hyz1102,001,2021_Nov_02_1627,FigureTest,2021.2.1,60.10706270361948,
Extinction\CS+1.BMP,-0.1,,0,0,0,0,0,8,8,0,,,,,,,,,,,,,34.434454799978994,None,34.434454799978994,None,35.44225889997324,None,,,,,,,,,,,hyz1102,001,2021_Nov_02_1627,FigureTest,2021.2.1,60.10706270361948,
Extinction\CS-1.BMP,0.4,,0,0,0,0,0,9,9,14,,,,,,,,,,,,,35.518293700006325,None,35.518293700006325,None,36.50972259999253,None,,,,,,,,,,,hyz1102,001,2021_Nov_02_1627,FigureTest,2021.2.1,60.10706270361948,
Extinction\CS+1.BMP,-0.1,,0,0,0,0,0,10,10,6,,,,,,,,,,,,,36.699282399960794,None,36.699282399960794,None,37.70772860001307,None,,,,,,,,,,,hyz1102,001,2021_Nov_02_1627,FigureTest,2021.2.1,60.10706270361948,
Extinction\CS+1.BMP,-0.1,,0,0,0,0,0,11,11,7,,,,,,,,,,,,,37.891223400016315,None,37.891223400016315,None,38.89092009997694,None,,,,,,,,,,,hyz1102,001,2021_Nov_02_1627,FigureTest,2021.2.1,60.10706270361948,
Extinction\CS+1.BMP,-0.1,,0,0,0,0,0,12,12,1,,,,,,,,,,,,,39.09395539999241,None,39.09395539999241,None,40.10792709997622,None,,,,,,,,,,,hyz1102,001,2021_Nov_02_1627,FigureTest,2021.2.1,60.10706270361948,
Extinction\CS-1.BMP,0.4,,0,0,0,0,0,13,13,13,,,,,,,,,,,,,40.43259979999857,None,40.43259979999857,None,41.42433810001239,None,,,,,,,,,,,hyz1102,001,2021_Nov_02_1627,FigureTest,2021.2.1,60.10706270361948,
Extinction\CS+1.BMP,-0.1,,0,0,0,0,0,14,14,9,,,,,,,,,,,,,41.565678199985996,None,41.565678199985996,None,42.57451880001463,None,,,,,,,,,,,hyz1102,001,2021_Nov_02_1627,FigureTest,2021.2.1,60.10706270361948,
Extinction\CS-1.BMP,0.4,,0,0,0,0,0,15,15,10,,,,,,,,,,,,,42.754588400013745,None,42.754588400013745,None,43.7576997000142,None,,,,,,,,,,,hyz1102,001,2021_Nov_02_1627,FigureTest,2021.2.1,60.10706270361948,
Extinction\CS-1.BMP,0.4,,0,0,0,0,0,16,16,17,,,,,,,,,,,,,43.95732519996818,None,43.95732519996818,None,44.95739230001345,None,,,,,,,,,,,hyz1102,001,2021_Nov_02_1627,FigureTest,2021.2.1,60.10706270361948,
Extinction\CS+1.BMP,-0.1,,0,0,0,0,0,17,17,2,,,,,,,,,,,,,45.049633599992376,None,45.049633599992376,None,46.04134429997066,None,,,,,,,,,,,hyz1102,001,2021_Nov_02_1627,FigureTest,2021.2.1,60.10706270361948,
Extinction\CS+1.BMP,-0.1,,0,0,0,0,0,18,18,3,,,,,,,,,,,,,46.25129079999169,None,46.25129079999169,None,47.25728610000806,None,,,,,,,,,,,hyz1102,001,2021_Nov_02_1627,FigureTest,2021.2.1,60.10706270361948,
Extinction\CS+1.BMP,-0.1,,0,0,0,0,0,19,19,5,,,,,,,,,,,,,47.456596500007436,None,47.456596500007436,None,48.45838169998024,None,,,,,,,,,,,hyz1102,001,2021_Nov_02_1627,FigureTest,2021.2.1,60.10706270361948,
,-0.1,Rating\ratingCS+1.png,0,0,0,0,,,,,0,0,0,0,,,,,,,,,,,,,,,52.6180324999732,None,52.6180324999732,None,2.2187499999999996,1.2167996999924071,52.6180324999732,None,,,hyz1102,001,2021_Nov_02_1627,FigureTest,2021.2.1,60.10706270361948,
,0.4,Rating\ratingCS-1.png,0,0,0,0,,,,,0,1,1,1,,,,,,,,,,,,,,,55.736628099984955,None,55.736628099984955,None,1.7578125,2.6668101999675855,55.736628099984955,None,,,hyz1102,001,2021_Nov_02_1627,FigureTest,2021.2.1,60.10706270361948,
,,,0,0,0,0,,,,,,,,,,,,,,,,,,,,,,,,,,,,,,,,,hyz1102,001,2021_Nov_02_1627,FigureTest,2021.2.1,60.10706270361948,
Extinction\CS-2.BMP,0.4,,1,0,1,0,0,0,0,14,,,,,,,,,,,,,57.94551170000341,None,57.94551170000341,None,58.954947699967306,None,,,,,,,,,,,hyz1102,001,2021_Nov_02_1627,FigureTest,2021.2.1,60.10706270361948,
Extinction\CS+2.BMP,-0.1,,1,0,1,0,0,1,1,1,,,,,,,,,,,,,59.24525169999106,None,59.24525169999106,None,60.253358399961144,None,,,,,,,,,,,hyz1102,001,2021_Nov_02_1627,FigureTest,2021.2.1,60.10706270361948,
Extinction\CS+2.BMP,-0.1,,1,0,1,0,0,2,2,2,,,,,,,,,,,,,60.35329339996679,None,60.35329339996679,None,61.353444100008346,None,,,,,,,,,,,hyz1102,001,2021_Nov_02_1627,FigureTest,2021.2.1,60.10706270361948,
Extinction\CS-2.BMP,0.4,,1,0,1,0,0,3,3,17,,,,,,,,,,,,,61.45943399996031,None,61.45943399996031,None,62.471586900006514,None,,,,,,,,,,,hyz1102,001,2021_Nov_02_1627,FigureTest,2021.2.1,60.10706270361948,
Extinction\CS-2.BMP,0.4,,1,0,1,0,0,4,4,18,,,,,,,,,,,,,62.493020299996715,None,62.493020299996715,None,63.50297239999054,None,,,,,,,,,,,hyz1102,001,2021_Nov_02_1627,FigureTest,2021.2.1,60.10706270361948,
Extinction\CS-2.BMP,0.4,,1,0,1,0,0,5,5,13,,,,,,,,,,,,,63.65292129997397,None,63.65292129997397,None,64.65426859998843,None,,,,,,,,,,,hyz1102,001,2021_Nov_02_1627,FigureTest,2021.2.1,60.10706270361948,
Extinction\CS+2.BMP,-0.1,,1,0,1,0,0,6,6,4,,,,,,,,,,,,,64.77064770000288,None,64.77064770000288,None,65.77029899996705,None,,,,,,,,,,,hyz1102,001,2021_Nov_02_1627,FigureTest,2021.2.1,60.10706270361948,
Extinction\CS+2.BMP,-0.1,,1,0,1,0,0,7,7,3,,,,,,,,,,,,,65.88635919999797,None,65.88635919999797,None,66.88659629999893,None,,,,,,,,,,,hyz1102,001,2021_Nov_02_1627,FigureTest,2021.2.1,60.10706270361948,
Extinction\CS-2.BMP,0.4,,1,0,1,0,0,8,8,15,,,,,,,,,,,,,67.00476430001436,None,67.00476430001436,None,68.0038307000068,None,,,,,,,,,,,hyz1102,001,2021_Nov_02_1627,FigureTest,2021.2.1,60.10706270361948,
Extinction\CS+2.BMP,-0.1,,1,0,1,0,0,9,9,6,,,,,,,,,,,,,68.21437890001107,None,68.21437890001107,None,69.21964460000163,None,,,,,,,,,,,hyz1102,001,2021_Nov_02_1627,FigureTest,2021.2.1,60.10706270361948,
Extinction\CS+2.BMP,-0.1,,1,0,1,0,0,10,10,5,,,,,,,,,,,,,69.28603009996004,None,69.28603009996004,None,70.2868645999697,None,,,,,,,,,,,hyz1102,001,2021_Nov_02_1627,FigureTest,2021.2.1,60.10706270361948,
Extinction\CS-2.BMP,0.4,,1,0,1,0,0,11,11,19,,,,,,,,,,,,,70.43570849997923,None,70.43570849997923,None,71.43607669998892,None,,,,,,,,,,,hyz1102,001,2021_Nov_02_1627,FigureTest,2021.2.1,60.10706270361948,
Extinction\CS+2.BMP,-0.1,,1,0,1,0,0,12,12,9,,,,,,,,,,,,,71.65335839998443,None,71.65335839998443,None,72.65243199997349,None,,,,,,,,,,,hyz1102,001,2021_Nov_02_1627,FigureTest,2021.2.1,60.10706270361948,
Extinction\CS+2.BMP,-0.1,,1,0,1,0,0,13,13,0,,,,,,,,,,,,,72.90209280001,None,72.90209280001,None,73.90212789998623,None,,,,,,,,,,,hyz1102,001,2021_Nov_02_1627,FigureTest,2021.2.1,60.10706270361948,
Extinction\CS-2.BMP,0.4,,1,0,1,0,0,14,14,10,,,,,,,,,,,,,74.024614199996,None,74.024614199996,None,75.0370891999919,None,,,,,,,,,,,hyz1102,001,2021_Nov_02_1627,FigureTest,2021.2.1,60.10706270361948,
Extinction\CS-2.BMP,0.4,,1,0,1,0,0,15,15,16,,,,,,,,,,,,,75.07025950000389,None,75.07025950000389,None,76.08535319997463,None,,,,,,,,,,,hyz1102,001,2021_Nov_02_1627,FigureTest,2021.2.1,60.10706270361948,
Extinction\CS+2.BMP,-0.1,,1,0,1,0,0,16,16,7,,,,,,,,,,,,,76.31452650000574,None,76.31452650000574,None,77.31851499999175,None,,,,,,,,,,,hyz1102,001,2021_Nov_02_1627,FigureTest,2021.2.1,60.10706270361948,
Extinction\CS+2.BMP,-0.1,,1,0,1,0,0,17,17,8,,,,,,,,,,,,,77.45170390000567,None,77.45170390000567,None,78.4519358999678,None,,,,,,,,,,,hyz1102,001,2021_Nov_02_1627,FigureTest,2021.2.1,60.10706270361948,
Extinction\CS-2.BMP,0.4,,1,0,1,0,0,18,18,12,,,,,,,,,,,,,78.5347559999791,None,78.5347559999791,None,79.53486249997513,None,,,,,,,,,,,hyz1102,001,2021_Nov_02_1627,FigureTest,2021.2.1,60.10706270361948,
Extinction\CS-2.BMP,0.4,,1,0,1,0,0,19,19,11,,,,,,,,,,,,,79.73983370000497,None,79.73983370000497,None,80.75170789996628,None,,,,,,,,,,,hyz1102,001,2021_Nov_02_1627,FigureTest,2021.2.1,60.10706270361948,
,-0.1,Rating\ratingCS+2.png,1,0,1,0,,,,,0,0,0,0,,,,,,,,,,,,,,,82.26008009997895,None,82.26008009997895,None,2.15625,6.573714500002097,82.26008009997895,None,,,hyz1102,001,2021_Nov_02_1627,FigureTest,2021.2.1,60.10706270361948,
,0.4,Rating\ratingCS-2.png,1,0,1,0,,,,,0,1,1,1,,,,,,,,,,,,,,,90.2870508999913,None,90.2870508999913,None,1.71875,0.5558006000355817,90.2870508999913,None,,,hyz1102,001,2021_Nov_02_1627,FigureTest,2021.2.1,60.10706270361948,
,,,1,0,1,0,,,,,,,,,,,,,,,,,,,,,,,,,,,,,,,,,hyz1102,001,2021_Nov_02_1627,FigureTest,2021.2.1,60.10706270361948,
Extinction\CS-3.BMP,0.4,,2,0,2,0,0,0,0,17,,,,,,,,,,,,,90.83587559999432,None,90.83587559999432,None,91.83669139997801,None,,,,,,,,,,,hyz1102,001,2021_Nov_02_1627,FigureTest,2021.2.1,60.10706270361948,
Extinction\CS+3.BMP,-0.1,,2,0,2,0,0,1,1,9,,,,,,,,,,,,,92.20136830001138,None,92.20136830001138,None,93.20059789996594,None,,,,,,,,,,,hyz1102,001,2021_Nov_02_1627,FigureTest,2021.2.1,60.10706270361948,
Extinction\CS-3.BMP,0.4,,2,0,2,0,0,2,2,12,,,,,,,,,,,,,93.27834219997749,None,93.27834219997749,None,94.2850036000018,None,,,,,,,,,,,hyz1102,001,2021_Nov_02_1627,FigureTest,2021.2.1,60.10706270361948,
Extinction\CS-3.BMP,0.4,,2,0,2,0,0,3,3,16,,,,,,,,,,,,,94.43656489998102,None,94.43656489998102,None,95.43432699999539,None,,,,,,,,,,,hyz1102,001,2021_Nov_02_1627,FigureTest,2021.2.1,60.10706270361948,
Extinction\CS+3.BMP,-0.1,,2,0,2,0,0,4,4,5,,,,,,,,,,,,,95.84434129996225,None,95.84434129996225,None,96.85244230000535,None,,,,,,,,,,,hyz1102,001,2021_Nov_02_1627,FigureTest,2021.2.1,60.10706270361948,
Extinction\CS-3.BMP,0.4,,2,0,2,0,0,5,5,13,,,,,,,,,,,,,96.96743289998267,None,96.96743289998267,None,97.96657629997935,None,,,,,,,,,,,hyz1102,001,2021_Nov_02_1627,FigureTest,2021.2.1,60.10706270361948,
Extinction\CS-3.BMP,0.4,,2,0,2,0,0,6,6,15,,,,,,,,,,,,,98.1169173999806,None,98.1169173999806,None,99.11728209996363,None,,,,,,,,,,,hyz1102,001,2021_Nov_02_1627,FigureTest,2021.2.1,60.10706270361948,
Extinction\CS+3.BMP,-0.1,,2,0,2,0,0,7,7,6,,,,,,,,,,,,,99.18375409999862,None,99.18375409999862,None,100.1838609999977,None,,,,,,,,,,,hyz1102,001,2021_Nov_02_1627,FigureTest,2021.2.1,60.10706270361948,
Extinction\CS+3.BMP,-0.1,,2,0,2,0,0,8,8,3,,,,,,,,,,,,,100.35001080000075,None,100.35001080000075,None,101.35279689996969,None,,,,,,,,,,,hyz1102,001,2021_Nov_02_1627,FigureTest,2021.2.1,60.10706270361948,
Extinction\CS-3.BMP,0.4,,2,0,2,0,0,9,9,10,,,,,,,,,,,,,101.51702959998511,None,101.51702959998511,None,102.51834010001039,None,,,,,,,,,,,hyz1102,001,2021_Nov_02_1627,FigureTest,2021.2.1,60.10706270361948,
Extinction\CS-3.BMP,0.4,,2,0,2,0,0,10,10,18,,,,,,,,,,,,,102.73487849999219,None,102.73487849999219,None,103.73431580001488,None,,,,,,,,,,,hyz1102,001,2021_Nov_02_1627,FigureTest,2021.2.1,60.10706270361948,
Extinction\CS+3.BMP,-0.1,,2,0,2,0,0,11,11,7,,,,,,,,,,,,,104.09289149998222,None,104.09289149998222,None,105.10139779996825,None,,,,,,,,,,,hyz1102,001,2021_Nov_02_1627,FigureTest,2021.2.1,60.10706270361948,
Extinction\CS+3.BMP,-0.1,,2,0,2,0,0,12,12,4,,,,,,,,,,,,,105.23835900000995,None,105.23835900000995,None,106.25172459997702,None,,,,,,,,,,,hyz1102,001,2021_Nov_02_1627,FigureTest,2021.2.1,60.10706270361948,
Extinction\CS-3.BMP,0.4,,2,0,2,0,0,13,13,14,,,,,,,,,,,,,106.37685110000893,None,106.37685110000893,None,107.38355620001676,None,,,,,,,,,,,hyz1102,001,2021_Nov_02_1627,FigureTest,2021.2.1,60.10706270361948,
Extinction\CS+3.BMP,-0.1,,2,0,2,0,0,14,14,8,,,,,,,,,,,,,107.46602739999071,None,107.46602739999071,None,108.46605119999731,None,,,,,,,,,,,hyz1102,001,2021_Nov_02_1627,FigureTest,2021.2.1,60.10706270361948,
Extinction\CS-3.BMP,0.4,,2,0,2,0,0,15,15,11,,,,,,,,,,,,,108.59971689997474,None,108.59971689997474,None,109.60197989997687,None,,,,,,,,,,,hyz1102,001,2021_Nov_02_1627,FigureTest,2021.2.1,60.10706270361948,
Extinction\CS+3.BMP,-0.1,,2,0,2,0,0,16,16,2,,,,,,,,,,,,,109.73453010001685,None,109.73453010001685,None,110.73394720000215,None,,,,,,,,,,,hyz1102,001,2021_Nov_02_1627,FigureTest,2021.2.1,60.10706270361948,
Extinction\CS+3.BMP,-0.1,,2,0,2,0,0,17,17,0,,,,,,,,,,,,,110.87066209997283,None,110.87066209997283,None,111.88349929999094,None,,,,,,,,,,,hyz1102,001,2021_Nov_02_1627,FigureTest,2021.2.1,60.10706270361948,
Extinction\CS+3.BMP,-0.1,,2,0,2,0,0,18,18,1,,,,,,,,,,,,,112.0493773999624,None,112.0493773999624,None,113.04867769998964,None,,,,,,,,,,,hyz1102,001,2021_Nov_02_1627,FigureTest,2021.2.1,60.10706270361948,
Extinction\CS-3.BMP,0.4,,2,0,2,0,0,19,19,19,,,,,,,,,,,,,113.16879089997383,None,113.16879089997383,None,114.18258319998858,None,,,,,,,,,,,hyz1102,001,2021_Nov_02_1627,FigureTest,2021.2.1,60.10706270361948,
,-0.1,Rating\ratingCS+3.png,2,0,2,0,,,,,0,0,0,0,,,,,,,,,,,,,,,115.75227140000788,None,115.75227140000788,None,1.828125,5.217636899964418,115.75227140000788,None,,,hyz1102,001,2021_Nov_02_1627,FigureTest,2021.2.1,60.10706270361948,
,0.4,Rating\ratingCS-3.png,2,0,2,0,,,,,0,1,1,1,,,,,,,,,,,,,,,122.52493879996473,None,122.52493879996473,None,2.0,0.7537878999719396,122.52493879996473,None,,,hyz1102,001,2021_Nov_02_1627,FigureTest,2021.2.1,60.10706270361948,
,,,2,0,2,0,,,,,,,,,,,,,,,,,,,,,,,,,,,,,,,,,hyz1102,001,2021_Nov_02_1627,FigureTest,2021.2.1,60.10706270361948,
,,,,,,,,,,,,,,,,,,,,,,,,,,,,,,,,,,,,,123.1583562999731,None,,,,,,,
