PreCondName,TrgCol,ratingName,CSName,UCSName,SoundName,ExtName,PreConditiong1.thisRepN,PreConditiong1.thisTrialN,PreConditiong1.thisN,PreConditiong1.thisIndex,RatingPreCond1.thisRepN,RatingPreCond1.thisTrialN,RatingPreCond1.thisN,RatingPreCond1.thisIndex,Conditioning1.thisRepN,Conditioning1.thisTrialN,Conditioning1.thisN,Conditioning1.thisIndex,RatingCond1.thisRepN,RatingCond1.thisTrialN,RatingCond1.thisN,RatingCond1.thisIndex,Extinction1.thisRepN,Extinction1.thisTrialN,Extinction1.thisN,Extinction1.thisIndex,Rating3.thisRepN,Rating3.thisTrialN,Rating3.thisN,Rating3.thisIndex,InstrBkg.started,InstrBkg.stopped,TagFig.started,TagFig.stopped,InstrKeyResp.keys,InstrKeyResp.rt,InstrKeyResp.started,InstrKeyResp.stopped,precondBkg.started,precondBkg.stopped,imagePreCond.started,imagePreCond.stopped,BlankBkg.started,BlankBkg.stopped,Bkg.started,Bkg.stopped,image.started,image.stopped,Scale.response,Scale.rt,Scale.started,Scale.stopped,InstrBkg2.started,InstrBkg2.stopped,TagFig2.started,TagFig2.stopped,key_resp.keys,key_resp.rt,key_resp.started,key_resp.stopped,CSBkg.started,CSBkg.stopped,CS_image.started,CS_image.stopped,UCSBkg.started,UCSBkg.stopped,UCS_image.started,UCS_image.stopped,sound_1.started,sound_1.stopped,InstrBkg3.started,InstrBkg3.stopped,TagFig3.started,TagFig3.stopped,key_resp_3.keys,key_resp_3.rt,key_resp_3.started,key_resp_3.stopped,ExtBkg.started,ExtBkg.stopped,Ext_image.started,Ext_image.stopped,EndTxt.started,EndTxt.stopped,participant,session,date,expName,psychopyVersion,frameRate,
,,,,,,,,,,,,,,,,,,,,,,,,,,,,,,,36.0964004000125,None,36.0964004000125,None,space,21.988721300003817,36.0964004000125,None,,,,,,,,,,,,,,,,,,,,,,,,,,,,,,,,,,,,,,,,,,,,,,,hyz1101,001,2021_Nov_01_1643,FigureTest,2021.2.1,59.6283010211765,
PreCondition\CS+1.BMP,-0.1,,,,,,0,0,0,1,,,,,,,,,,,,,,,,,,,,,,,,,,,,,58.14113100001123,None,58.14113100001123,None,64.12955780001357,None,,,,,,,,,,,,,,,,,,,,,,,,,,,,,,,,,,,,,,,,,hyz1101,001,2021_Nov_01_1643,FigureTest,2021.2.1,59.6283010211765,
PreCondition\CS-1.BMP,0.4,,,,,,0,1,1,7,,,,,,,,,,,,,,,,,,,,,,,,,,,,,72.3398981000064,None,72.3398981000064,78.32576480001444,78.34260490001179,None,,,,,,,,,,,,,,,,,,,,,,,,,,,,,,,,,,,,,,,,,hyz1101,001,2021_Nov_01_1643,FigureTest,2021.2.1,59.6283010211765,
PreCondition\CS-1.BMP,0.4,,,,,,0,2,2,5,,,,,,,,,,,,,,,,,,,,,,,,,,,,,86.45817410000018,None,86.45817410000018,92.4440467999957,92.45802520000143,None,,,,,,,,,,,,,,,,,,,,,,,,,,,,,,,,,,,,,,,,,hyz1101,001,2021_Nov_01_1643,FigureTest,2021.2.1,59.6283010211765,
PreCondition\CS+1.BMP,-0.1,,,,,,0,3,3,0,,,,,,,,,,,,,,,,,,,,,,,,,,,,,100.73317650001263,None,100.73317650001263,None,106.72454809999908,None,,,,,,,,,,,,,,,,,,,,,,,,,,,,,,,,,,,,,,,,,hyz1101,001,2021_Nov_01_1643,FigureTest,2021.2.1,59.6283010211765,
PreCondition\CS-1.BMP,0.4,,,,,,0,4,4,6,,,,,,,,,,,,,,,,,,,,,,,,,,,,,114.87183910000022,None,114.87183910000022,None,120.87155989999883,None,,,,,,,,,,,,,,,,,,,,,,,,,,,,,,,,,,,,,,,,,hyz1101,001,2021_Nov_01_1643,FigureTest,2021.2.1,59.6283010211765,
PreCondition\CS+1.BMP,-0.1,,,,,,0,5,5,4,,,,,,,,,,,,,,,,,,,,,,,,,,,,,129.3467114000232,None,129.3467114000232,135.33830910001416,135.35369790002005,None,,,,,,,,,,,,,,,,,,,,,,,,,,,,,,,,,,,,,,,,,hyz1101,001,2021_Nov_01_1643,FigureTest,2021.2.1,59.6283010211765,
PreCondition\CS-1.BMP,0.4,,,,,,0,6,6,8,,,,,,,,,,,,,,,,,,,,,,,,,,,,,143.64825009999913,None,143.64825009999913,None,149.6373555000173,None,,,,,,,,,,,,,,,,,,,,,,,,,,,,,,,,,,,,,,,,,hyz1101,001,2021_Nov_01_1643,FigureTest,2021.2.1,59.6283010211765,
PreCondition\CS+1.BMP,-0.1,,,,,,0,7,7,2,,,,,,,,,,,,,,,,,,,,,,,,,,,,,157.84433880000142,None,157.84433880000142,163.83532530002412,163.85177460001432,None,,,,,,,,,,,,,,,,,,,,,,,,,,,,,,,,,,,,,,,,,hyz1101,001,2021_Nov_01_1643,FigureTest,2021.2.1,59.6283010211765,
PreCondition\CS+1.BMP,-0.1,,,,,,0,8,8,3,,,,,,,,,,,,,,,,,,,,,,,,,,,,,171.9502296000137,None,171.9502296000137,177.93317520001438,177.949374000018,None,,,,,,,,,,,,,,,,,,,,,,,,,,,,,,,,,,,,,,,,,hyz1101,001,2021_Nov_01_1643,FigureTest,2021.2.1,59.6283010211765,
PreCondition\CS-1.BMP,0.4,,,,,,0,9,9,9,,,,,,,,,,,,,,,,,,,,,,,,,,,,,186.14607410001918,None,186.14607410001918,192.13169130001916,192.1483061000181,None,,,,,,,,,,,,,,,,,,,,,,,,,,,,,,,,,,,,,,,,,hyz1101,001,2021_Nov_01_1643,FigureTest,2021.2.1,59.6283010211765,
,-0.1,Rating\ratingCS+1.png,,,,,,,,,0,0,0,0,,,,,,,,,,,,,,,,,,,,,,,,,,,,,,,204.33917870000005,None,204.33917870000005,None,1.5312499999999996,31.888352199981455,204.33917870000005,None,,,,,,,,,,,,,,,,,,,,,,,,,,,,,,,,,hyz1101,001,2021_Nov_01_1643,FigureTest,2021.2.1,59.6283010211765,
,0.4,Rating\ratingCS-1.png,,,,,,,,,0,1,1,1,,,,,,,,,,,,,,,,,,,,,,,,,,,,,,,237.8760595000058,None,237.8760595000058,None,1.5781249999999996,1.074507099983748,237.8760595000058,None,,,,,,,,,,,,,,,,,,,,,,,,,,,,,,,,,hyz1101,001,2021_Nov_01_1643,FigureTest,2021.2.1,59.6283010211765,
,,,,,,,,,,,,,,,,,,,,,,,,,,,,,,,,,,,,,,,,,,,,,,,,,,,,,238.77595810001367,None,238.77595810001367,None,space,13.349845299992012,238.77595810001367,None,,,,,,,,,,,,,,,,,,,,,,,,,hyz1101,001,2021_Nov_01_1643,FigureTest,2021.2.1,59.6283010211765,
,0.4,,Condition\CS-1.BMP,Condition\black.PNG,Sound\silent.wav,,,,,,,,,,0,0,0,29,,,,,,,,,,,,,,,,,,,,,,,,,261.69984810001915,None,,,,,,,,,,,,,,,,,252.1743386000162,None,252.1743386000162,None,None,None,None,None,None,None,,,,,,,,,,,,,,,hyz1101,001,2021_Nov_01_1643,FigureTest,2021.2.1,59.6283010211765,
,0.4,,Condition\CS-1.BMP,Condition\black.PNG,Sound\silent.wav,,,,,,,,,,0,1,1,22,,,,,,,,,,,,,,,,,,,,,,,,,276.8787738000101,None,,,,,,,,,,,,,,,,,269.81532720001996,None,269.81532720001996,None,None,None,None,None,None,None,,,,,,,,,,,,,,,hyz1101,001,2021_Nov_01_1643,FigureTest,2021.2.1,59.6283010211765,
,0.4,,Condition\CS-1.BMP,Condition\black.PNG,Sound\silent.wav,,,,,,,,,,0,2,2,23,,,,,,,,,,,,,,,,,,,,,,,,,292.09442900001886,None,,,,,,,,,,,,,,,,,285.0324971000082,None,285.0324971000082,None,292.07185050001135,None,292.07185050001135,None,291.99994885005873,None,,,,,,,,,,,,,,,hyz1101,001,2021_Nov_01_1643,FigureTest,2021.2.1,59.6283010211765,
,0.9,,Condition\CS+1.BMP,Condition\UCS1.BMP,Sound\scream1.wav,,,,,,,,,,0,3,3,6,,,,,,,,,,,,,,,,,,,,,,,,,307.25095380001585,None,,,,,,,,,,,,,,,,,300.21706220001215,None,300.21706220001215,None,306.3331839000166,None,306.3331839000166,None,306.34216560000783,None,,,,,,,,,,,,,,,hyz1101,001,2021_Nov_01_1643,FigureTest,2021.2.1,59.6283010211765,
,0.4,,Condition\CS-1.BMP,Condition\black.PNG,Sound\silent.wav,,,,,,,,,,0,4,4,17,,,,,,,,,,,,,,,,,,,,,,,,,325.1142078000121,None,,,,,,,,,,,,,,,,,315.5403766000236,None,315.5403766000236,None,None,None,None,None,None,None,,,,,,,,,,,,,,,hyz1101,001,2021_Nov_01_1643,FigureTest,2021.2.1,59.6283010211765,
,0.9,,Condition\CS+1.BMP,Condition\UCS1.BMP,Sound\scream1.wav,,,,,,,,,,0,5,5,12,,,,,,,,,,,,,,,,,,,,,,,,,340.2831925000064,None,,,,,,,,,,,,,,,,,333.26966489999904,None,333.26966489999904,None,339.3693836000166,None,339.3693836000166,None,339.3791773000208,None,,,,,,,,,,,,,,,hyz1101,001,2021_Nov_01_1643,FigureTest,2021.2.1,59.6283010211765,
,0.9,,Condition\CS+1.BMP,Condition\UCS1.BMP,Sound\scream1.wav,,,,,,,,,,0,6,6,5,,,,,,,,,,,,,,,,,,,,,,,,,355.5976149000053,None,,,,,,,,,,,,,,,,,348.5550014000037,None,348.5550014000037,None,354.58112220000476,None,354.58112220000476,None,354.5904277500172,None,,,,,,,,,,,,,,,hyz1101,001,2021_Nov_01_1643,FigureTest,2021.2.1,59.6283010211765,
,0.4,,Condition\CS-1.BMP,Condition\black.PNG,Sound\silent.wav,,,,,,,,,,0,7,7,24,,,,,,,,,,,,,,,,,,,,,,,,,373.41731119999895,None,,,,,,,,,,,,,,,,,363.87513640002,None,363.87513640002,None,None,None,None,None,None,None,,,,,,,,,,,,,,,hyz1101,001,2021_Nov_01_1643,FigureTest,2021.2.1,59.6283010211765,
,0.9,,Condition\CS+1.BMP,Condition\UCS1.BMP,Sound\scream1.wav,,,,,,,,,,0,8,8,14,,,,,,,,,,,,,,,,,,,,,,,,,388.7393508000241,None,,,,,,,,,,,,,,,,,381.71714990001055,None,381.71714990001055,None,387.8142131000059,None,387.8142131000059,None,387.8159043500258,None,,,,,,,,,,,,,,,hyz1101,001,2021_Nov_01_1643,FigureTest,2021.2.1,59.6283010211765,
,0.9,,Condition\CS+1.BMP,Condition\UCS1.BMP,Sound\scream1.wav,,,,,,,,,,0,9,9,8,,,,,,,,,,,,,,,,,,,,,,,,,403.9369826000184,None,,,,,,,,,,,,,,,,,396.866448100016,None,396.866448100016,None,402.87297640001634,None,402.87297640001634,None,402.88255159999824,None,,,,,,,,,,,,,,,hyz1101,001,2021_Nov_01_1643,FigureTest,2021.2.1,59.6283010211765,
,0.9,,Condition\CS+1.BMP,Condition\UCS1.BMP,Sound\scream1.wav,,,,,,,,,,0,10,10,10,,,,,,,,,,,,,,,,,,,,,,,,,419.1752841999987,None,,,,,,,,,,,,,,,,,412.1146967000095,None,412.1146967000095,None,418.14090120000765,None,418.14090120000765,None,418.14993685000223,None,,,,,,,,,,,,,,,hyz1101,001,2021_Nov_01_1643,FigureTest,2021.2.1,59.6283010211765,
,0.4,,Condition\CS-1.BMP,Condition\black.PNG,Sound\silent.wav,,,,,,,,,,0,11,11,18,,,,,,,,,,,,,,,,,,,,,,,,,437.3097298000066,None,,,,,,,,,,,,,,,,,427.7226526000013,None,427.7226526000013,None,None,None,None,None,None,None,,,,,,,,,,,,,,,hyz1101,001,2021_Nov_01_1643,FigureTest,2021.2.1,59.6283010211765,
,0.4,,Condition\CS-1.BMP,Condition\black.PNG,Sound\silent.wav,,,,,,,,,,0,12,12,28,,,,,,,,,,,,,,,,,,,,,,,,,452.74926430001506,None,,,,,,,,,,,,,,,,,445.6522054000234,None,445.6522054000234,None,452.70492220000597,None,452.70492220000597,None,452.63642025006703,None,,,,,,,,,,,,,,,hyz1101,001,2021_Nov_01_1643,FigureTest,2021.2.1,59.6283010211765,
,0.4,,Condition\CS-1.BMP,Condition\black.PNG,Sound\silent.wav,,,,,,,,,,0,13,13,27,,,,,,,,,,,,,,,,,,,,,,,,,468.0157262000139,None,,,,,,,,,,,,,,,,,460.942414500023,None,460.942414500023,None,467.9409100000048,None,467.9409100000048,None,467.8935946000507,None,,,,,,,,,,,,,,,hyz1101,001,2021_Nov_01_1643,FigureTest,2021.2.1,59.6283010211765,
,-0.1,,Condition\CS+1.BMP,Condition\black.PNG,Sound\silent.wav,,,,,,,,,,0,14,14,2,,,,,,,,,,,,,,,,,,,,,,,,,483.17281350001576,None,,,,,,,,,,,,,,,,,476.13876540001365,None,476.13876540001365,None,483.15278170001693,None,483.15278170001693,None,483.07738500006377,None,,,,,,,,,,,,,,,hyz1101,001,2021_Nov_01_1643,FigureTest,2021.2.1,59.6283010211765,
,0.9,,Condition\CS+1.BMP,Condition\UCS1.BMP,Sound\scream1.wav,,,,,,,,,,0,15,15,7,,,,,,,,,,,,,,,,,,,,,,,,,498.3551401000004,None,,,,,,,,,,,,,,,,,491.3051732000022,None,491.3051732000022,None,497.40611460001674,None,497.40611460001674,None,497.40513685002804,None,,,,,,,,,,,,,,,hyz1101,001,2021_Nov_01_1643,FigureTest,2021.2.1,59.6283010211765,
,0.4,,Condition\CS-1.BMP,Condition\black.PNG,Sound\silent.wav,,,,,,,,,,0,16,16,19,,,,,,,,,,,,,,,,,,,,,,,,,516.3265792000166,None,,,,,,,,,,,,,,,,,506.747774700023,None,506.747774700023,None,None,None,None,None,None,None,,,,,,,,,,,,,,,hyz1101,001,2021_Nov_01_1643,FigureTest,2021.2.1,59.6283010211765,
,0.4,,Condition\CS-1.BMP,Condition\black.PNG,Sound\silent.wav,,,,,,,,,,0,17,17,25,,,,,,,,,,,,,,,,,,,,,,,,,531.523062399996,None,,,,,,,,,,,,,,,,,524.4391164999979,None,524.4391164999979,None,531.4790627000039,None,531.4790627000039,None,531.4048075000698,None,,,,,,,,,,,,,,,hyz1101,001,2021_Nov_01_1643,FigureTest,2021.2.1,59.6283010211765,
,0.4,,Condition\CS-1.BMP,Condition\black.PNG,Sound\silent.wav,,,,,,,,,,0,18,18,15,,,,,,,,,,,,,,,,,,,,,,,,,547.088874100009,None,,,,,,,,,,,,,,,,,539.9855438000232,None,539.9855438000232,None,547.011496000021,None,547.011496000021,None,546.933506750071,None,,,,,,,,,,,,,,,hyz1101,001,2021_Nov_01_1643,FigureTest,2021.2.1,59.6283010211765,
,0.9,,Condition\CS+1.BMP,Condition\UCS1.BMP,Sound\scream1.wav,,,,,,,,,,0,19,19,4,,,,,,,,,,,,,,,,,,,,,,,,,562.5220936000114,None,,,,,,,,,,,,,,,,,555.5226773000031,None,555.5226773000031,None,561.6351280999952,None,561.6351280999952,None,561.6314854500292,None,,,,,,,,,,,,,,,hyz1101,001,2021_Nov_01_1643,FigureTest,2021.2.1,59.6283010211765,
,0.4,,Condition\CS-1.BMP,Condition\black.PNG,Sound\silent.wav,,,,,,,,,,0,20,20,16,,,,,,,,,,,,,,,,,,,,,,,,,580.345935600024,None,,,,,,,,,,,,,,,,,570.7674942000012,None,570.7674942000012,None,None,None,None,None,None,None,,,,,,,,,,,,,,,hyz1101,001,2021_Nov_01_1643,FigureTest,2021.2.1,59.6283010211765,
,0.4,,Condition\CS-1.BMP,Condition\black.PNG,Sound\silent.wav,,,,,,,,,,0,21,21,26,,,,,,,,,,,,,,,,,,,,,,,,,595.7523188000196,None,,,,,,,,,,,,,,,,,588.667449200002,None,588.667449200002,None,595.7134778000182,None,595.7134778000182,None,595.632547000068,None,,,,,,,,,,,,,,,hyz1101,001,2021_Nov_01_1643,FigureTest,2021.2.1,59.6283010211765,
,-0.1,,Condition\CS+1.BMP,Condition\black.PNG,Sound\silent.wav,,,,,,,,,,0,22,22,0,,,,,,,,,,,,,,,,,,,,,,,,,611.018879900017,None,,,,,,,,,,,,,,,,,604.0015538000152,None,604.0015538000152,None,610.9755292000191,None,610.9755292000191,None,610.9516038000526,None,,,,,,,,,,,,,,,hyz1101,001,2021_Nov_01_1643,FigureTest,2021.2.1,59.6283010211765,
,0.9,,Condition\CS+1.BMP,Condition\UCS1.BMP,Sound\scream1.wav,,,,,,,,,,0,23,23,11,,,,,,,,,,,,,,,,,,,,,,,,,626.2549222000234,None,,,,,,,,,,,,,,,,,619.1779208000225,None,619.1779208000225,None,625.2864793000044,None,625.2864793000044,None,625.2943757000263,None,,,,,,,,,,,,,,,hyz1101,001,2021_Nov_01_1643,FigureTest,2021.2.1,59.6283010211765,
,0.9,,Condition\CS+1.BMP,Condition\UCS1.BMP,Sound\scream1.wav,,,,,,,,,,0,24,24,3,,,,,,,,,,,,,,,,,,,,,,,,,641.4520715000108,None,,,,,,,,,,,,,,,,,634.3552380000183,None,634.3552380000183,None,640.3684982999985,None,640.3684982999985,None,640.3717171000085,None,,,,,,,,,,,,,,,hyz1101,001,2021_Nov_01_1643,FigureTest,2021.2.1,59.6283010211765,
,0.9,,Condition\CS+1.BMP,Condition\UCS1.BMP,Sound\scream1.wav,,,,,,,,,,0,25,25,13,,,,,,,,,,,,,,,,,,,,,,,,,656.6720383000211,None,,,,,,,,,,,,,,,,,649.605813800008,None,649.605813800008,None,655.6165237000096,None,655.6165237000096,None,655.6221874000098,None,,,,,,,,,,,,,,,hyz1101,001,2021_Nov_01_1643,FigureTest,2021.2.1,59.6283010211765,
,-0.1,,Condition\CS+1.BMP,Condition\black.PNG,Sound\silent.wav,,,,,,,,,,0,26,26,1,,,,,,,,,,,,,,,,,,,,,,,,,674.7655752999999,None,,,,,,,,,,,,,,,,,664.9741769999964,None,664.9741769999964,None,None,None,None,None,None,None,,,,,,,,,,,,,,,hyz1101,001,2021_Nov_01_1643,FigureTest,2021.2.1,59.6283010211765,
,0.9,,Condition\CS+1.BMP,Condition\UCS1.BMP,Sound\scream1.wav,,,,,,,,,,0,27,27,9,,,,,,,,,,,,,,,,,,,,,,,,,689.866210600012,None,,,,,,,,,,,,,,,,,682.8466026000096,None,682.8466026000096,None,688.9509653999994,None,688.9509653999994,None,688.9466513500142,None,,,,,,,,,,,,,,,hyz1101,001,2021_Nov_01_1643,FigureTest,2021.2.1,59.6283010211765,
,0.4,,Condition\CS-1.BMP,Condition\black.PNG,Sound\silent.wav,,,,,,,,,,0,28,28,20,,,,,,,,,,,,,,,,,,,,,,,,,707.5975672000204,None,,,,,,,,,,,,,,,,,698.031613900006,None,698.031613900006,None,None,None,None,None,None,None,,,,,,,,,,,,,,,hyz1101,001,2021_Nov_01_1643,FigureTest,2021.2.1,59.6283010211765,
,0.4,,Condition\CS-1.BMP,Condition\black.PNG,Sound\silent.wav,,,,,,,,,,0,29,29,21,,,,,,,,,,,,,,,,,,,,,,,,,723.0189058000105,None,,,,,,,,,,,,,,,,,715.9713581000105,None,715.9713581000105,None,722.9834580000024,None,722.9834580000024,None,722.915237350046,None,,,,,,,,,,,,,,,hyz1101,001,2021_Nov_01_1643,FigureTest,2021.2.1,59.6283010211765,
,-0.1,Rating\ratingCS+1.png,,,,,,,,,,,,,,,,,0,0,0,0,,,,,,,,,,,,,,,,,,,,,,,732.7316603000218,None,732.7316603000218,None,1.6171875,10.120053899998311,732.7316603000218,None,,,,,,,,,,,,,,,,,,,,,,,,,,,,,,,,,hyz1101,001,2021_Nov_01_1643,FigureTest,2021.2.1,59.6283010211765,
,0.4,Rating\ratingCS-1.png,,,,,,,,,,,,,,,,,0,1,1,1,,,,,,,,,,,,,,,,,,,,,,,744.5783222000173,None,744.5783222000173,None,1.7968749999999996,1.500717099988833,744.5783222000173,None,,,,,,,,,,,,,,,,,,,,,,,,,,,,,,,,,hyz1101,001,2021_Nov_01_1643,FigureTest,2021.2.1,59.6283010211765,
,,,,,,,,,,,,,,,,,,,,,,,,,,,,,,,,,,,,,,,,,,,,,,,,,,,,,,,,,,,,,,,,,,,,,,,745.7573558000149,None,745.7573558000149,None,space,7.671805799996946,745.7573558000149,None,,,,,,,hyz1101,001,2021_Nov_01_1643,FigureTest,2021.2.1,59.6283010211765,
,0.4,,,,,Extinction\CS-1.BMP,,,,,,,,,,,,,,,,,0,0,0,15,,,,,,,,,,,,,,,,,759.4668007,None,,,,,,,,,,,,,,,,,,,,,,,,,,,,,,,,,,,753.4664052000153,None,753.4664052000153,None,,,hyz1101,001,2021_Nov_01_1643,FigureTest,2021.2.1,59.6283010211765,
,0.4,,,,,Extinction\CS-1.BMP,,,,,,,,,,,,,,,,,0,1,1,13,,,,,,,,,,,,,,,,,773.6966753000161,None,,,,,,,,,,,,,,,,,,,,,,,,,,,,,,,,,,,767.69729370001,None,767.69729370001,None,,,hyz1101,001,2021_Nov_01_1643,FigureTest,2021.2.1,59.6283010211765,
,-0.1,,,,,Extinction\CS+1.BMP,,,,,,,,,,,,,,,,,0,2,2,7,,,,,,,,,,,,,,,,,787.9141032000189,None,,,,,,,,,,,,,,,,,,,,,,,,,,,,,,,,,,,781.9171000000206,None,781.9171000000206,None,,,hyz1101,001,2021_Nov_01_1643,FigureTest,2021.2.1,59.6283010211765,
,0.4,,,,,Extinction\CS-1.BMP,,,,,,,,,,,,,,,,,0,3,3,8,,,,,,,,,,,,,,,,,802.1269449999963,None,,,,,,,,,,,,,,,,,,,,,,,,,,,,,,,,,,,796.1209808000131,None,796.1209808000131,None,,,hyz1101,001,2021_Nov_01_1643,FigureTest,2021.2.1,59.6283010211765,
,-0.1,,,,,Extinction\CS+1.BMP,,,,,,,,,,,,,,,,,0,4,4,2,,,,,,,,,,,,,,,,,816.3111503999971,None,,,,,,,,,,,,,,,,,,,,,,,,,,,,,,,,,,,810.3108862000227,None,810.3108862000227,None,,,hyz1101,001,2021_Nov_01_1643,FigureTest,2021.2.1,59.6283010211765,
,0.4,,,,,Extinction\CS-1.BMP,,,,,,,,,,,,,,,,,0,5,5,14,,,,,,,,,,,,,,,,,830.4266869999992,None,,,,,,,,,,,,,,,,,,,,,,,,,,,,,,,,,,,824.4329738000233,None,824.4329738000233,None,,,hyz1101,001,2021_Nov_01_1643,FigureTest,2021.2.1,59.6283010211765,
,-0.1,,,,,Extinction\CS+1.BMP,,,,,,,,,,,,,,,,,0,6,6,3,,,,,,,,,,,,,,,,,844.6919064999965,None,,,,,,,,,,,,,,,,,,,,,,,,,,,,,,,,,,,838.6837922999985,None,838.6837922999985,None,,,hyz1101,001,2021_Nov_01_1643,FigureTest,2021.2.1,59.6283010211765,
,0.4,,,,,Extinction\CS-1.BMP,,,,,,,,,,,,,,,,,0,7,7,12,,,,,,,,,,,,,,,,,859.1215543000144,None,,,,,,,,,,,,,,,,,,,,,,,,,,,,,,,,,,,853.1158941000176,None,853.1158941000176,None,,,hyz1101,001,2021_Nov_01_1643,FigureTest,2021.2.1,59.6283010211765,
,0.4,,,,,Extinction\CS-1.BMP,,,,,,,,,,,,,,,,,0,8,8,11,,,,,,,,,,,,,,,,,873.2035053000145,None,,,,,,,,,,,,,,,,,,,,,,,,,,,,,,,,,,,867.1949304000009,None,867.1949304000009,None,,,hyz1101,001,2021_Nov_01_1643,FigureTest,2021.2.1,59.6283010211765,
,0.4,,,,,Extinction\CS-1.BMP,,,,,,,,,,,,,,,,,0,9,9,9,,,,,,,,,,,,,,,,,887.3199211000174,None,,,,,,,,,,,,,,,,,,,,,,,,,,,,,,,,,,,881.319478600024,None,881.319478600024,None,,,hyz1101,001,2021_Nov_01_1643,FigureTest,2021.2.1,59.6283010211765,
,0.4,,,,,Extinction\CS-1.BMP,,,,,,,,,,,,,,,,,0,10,10,10,,,,,,,,,,,,,,,,,901.567990600015,None,,,,,,,,,,,,,,,,,,,,,,,,,,,,,,,,,,,895.5677118000167,None,895.5677118000167,None,,,hyz1101,001,2021_Nov_01_1643,FigureTest,2021.2.1,59.6283010211765,
,-0.1,,,,,Extinction\CS+1.BMP,,,,,,,,,,,,,,,,,0,11,11,6,,,,,,,,,,,,,,,,,915.7322886000038,None,,,,,,,,,,,,,,,,,,,,,,,,,,,,,,,,,,,909.7248576999991,None,909.7248576999991,None,,,hyz1101,001,2021_Nov_01_1643,FigureTest,2021.2.1,59.6283010211765,
,-0.1,,,,,Extinction\CS+1.BMP,,,,,,,,,,,,,,,,,0,12,12,0,,,,,,,,,,,,,,,,,929.7667658000137,None,,,,,,,,,,,,,,,,,,,,,,,,,,,,,,,,,,,923.7563203000173,None,923.7563203000173,None,,,hyz1101,001,2021_Nov_01_1643,FigureTest,2021.2.1,59.6283010211765,
,-0.1,,,,,Extinction\CS+1.BMP,,,,,,,,,,,,,,,,,0,13,13,1,,,,,,,,,,,,,,,,,943.9299406000064,None,,,,,,,,,,,,,,,,,,,,,,,,,,,,,,,,,,,937.9303252999962,None,937.9303252999962,None,,,hyz1101,001,2021_Nov_01_1643,FigureTest,2021.2.1,59.6283010211765,
,-0.1,,,,,Extinction\CS+1.BMP,,,,,,,,,,,,,,,,,0,14,14,5,,,,,,,,,,,,,,,,,958.0622605000099,None,,,,,,,,,,,,,,,,,,,,,,,,,,,,,,,,,,,952.0532645000203,None,952.0532645000203,None,,,hyz1101,001,2021_Nov_01_1643,FigureTest,2021.2.1,59.6283010211765,
,-0.1,,,,,Extinction\CS+1.BMP,,,,,,,,,,,,,,,,,0,15,15,4,,,,,,,,,,,,,,,,,972.1933927000209,None,,,,,,,,,,,,,,,,,,,,,,,,,,,,,,,,,,,966.1940758000128,None,966.1940758000128,None,,,hyz1101,001,2021_Nov_01_1643,FigureTest,2021.2.1,59.6283010211765,
,-0.1,Rating\ratingCS+1.png,,,,,,,,,,,,,,,,,,,,,,,,,0,0,0,0,,,,,,,,,,,,,,,981.7987632000004,None,981.7987632000004,None,1.6328125,29.495974199991906,981.7987632000004,None,,,,,,,,,,,,,,,,,,,,,,,,,,,,,,,,,hyz1101,001,2021_Nov_01_1643,FigureTest,2021.2.1,59.6283010211765,
,0.4,Rating\ratingCS-1.png,,,,,,,,,,,,,,,,,,,,,,,,,0,1,1,1,,,,,,,,,,,,,,,1012.8248823000176,None,1012.8248823000176,None,1.3906249999999996,1.1703696000040509,1012.8248823000176,None,,,,,,,,,,,,,,,,,,,,,,,,,,,,,,,,,hyz1101,001,2021_Nov_01_1643,FigureTest,2021.2.1,59.6283010211765,
,,,,,,,,,,,,,,,,,,,,,,,,,,,,,,,,,,,,,,,,,,,,,,,,,,,,,,,,,,,,,,,,,,,,,,,,,,,,,,,,,,,1013.8417458000185,None,,,,,,,
