PreCondName,TrgCol,ratingName,CSName,UCSName,SoundName,ExtName,trials_2.thisRepN,trials_2.thisTrialN,trials_2.thisN,trials_2.thisIndex,PreCond.thisRepN,PreCond.thisTrialN,PreCond.thisN,PreCond.thisIndex,RatingPreCond.thisRepN,RatingPreCond.thisTrialN,RatingPreCond.thisN,RatingPreCond.thisIndex,Cond.thisRepN,Cond.thisTrialN,Cond.thisN,Cond.thisIndex,RatingCond.thisRepN,RatingCond.thisTrialN,RatingCond.thisN,RatingCond.thisIndex,Extinction1.thisRepN,Extinction1.thisTrialN,Extinction1.thisN,Extinction1.thisIndex,Rating3.thisRepN,Rating3.thisTrialN,Rating3.thisN,Rating3.thisIndex,InstrBkg.started,InstrBkg.stopped,TagFig.started,TagFig.stopped,InstrKeyResp.keys,InstrKeyResp.rt,InstrKeyResp.started,InstrKeyResp.stopped,precondBkg.started,precondBkg.stopped,imagePreCond.started,imagePreCond.stopped,BlankBkg.started,BlankBkg.stopped,Bkg.started,Bkg.stopped,image.started,image.stopped,Scale.response,Scale.rt,Scale.started,Scale.stopped,InstrBkg2.started,InstrBkg2.stopped,TagFig2.started,TagFig2.stopped,key_resp.keys,key_resp.rt,key_resp.started,key_resp.stopped,CSBkg.started,CSBkg.stopped,CS_image.started,CS_image.stopped,UCSBkg.started,UCSBkg.stopped,UCS_image.started,UCS_image.stopped,sound_1.started,sound_1.stopped,InstrBkg3.started,InstrBkg3.stopped,TagFig3.started,TagFig3.stopped,key_resp_3.keys,key_resp_3.rt,key_resp_3.started,key_resp_3.stopped,ExtBkg.started,ExtBkg.stopped,Ext_image.started,Ext_image.stopped,EndTxt.started,EndTxt.stopped,participant,session,date,expName,psychopyVersion,frameRate,
PreCondition\CS-1.BMP,0.4,,,,,,0,0,0,0,0,0,0,9,,,,,,,,,,,,,,,,,,,,,34.50200490001589,None,34.50200490001589,None,space,45.095893300022,34.50200490001589,None,79.64555430004839,None,79.64555430004839,None,81.6446412000223,None,,,,,,,,,,,,,,,,,,,,,,,,,,,,,,,,,,,,,,,,,hyz1102,001,2021_Nov_02_1458,FigureTest,2021.2.1,60.05241375433173,
PreCondition\CS+1.BMP,-0.1,,,,,,0,0,0,0,0,1,1,2,,,,,,,,,,,,,,,,,,,,,,,,,,,,,82.89045690000057,None,82.89045690000057,84.87749190005707,84.89398160000565,None,,,,,,,,,,,,,,,,,,,,,,,,,,,,,,,,,,,,,,,,,hyz1102,001,2021_Nov_02_1458,FigureTest,2021.2.1,60.05241375433173,
PreCondition\CS-1.BMP,0.4,,,,,,0,0,0,0,0,2,2,5,,,,,,,,,,,,,,,,,,,,,,,,,,,,,86.10463549999986,None,86.10463549999986,88.0947161000222,88.11153980001109,None,,,,,,,,,,,,,,,,,,,,,,,,,,,,,,,,,,,,,,,,,hyz1102,001,2021_Nov_02_1458,FigureTest,2021.2.1,60.05241375433173,
PreCondition\CS-1.BMP,0.4,,,,,,0,0,0,0,0,3,3,8,,,,,,,,,,,,,,,,,,,,,,,,,,,,,89.36434640001971,None,89.36434640001971,91.36149310000474,91.37813280004775,None,,,,,,,,,,,,,,,,,,,,,,,,,,,,,,,,,,,,,,,,,hyz1102,001,2021_Nov_02_1458,FigureTest,2021.2.1,60.05241375433173,
PreCondition\CS-1.BMP,0.4,,,,,,0,0,0,0,0,4,4,6,,,,,,,,,,,,,,,,,,,,,,,,,,,,,92.49350890005007,None,92.49350890005007,94.47783870005514,94.49454949999927,None,,,,,,,,,,,,,,,,,,,,,,,,,,,,,,,,,,,,,,,,,hyz1102,001,2021_Nov_02_1458,FigureTest,2021.2.1,60.05241375433173,
PreCondition\CS+1.BMP,-0.1,,,,,,0,0,0,0,0,5,5,0,,,,,,,,,,,,,,,,,,,,,,,,,,,,,95.81537300004857,None,95.81537300004857,None,97.81038290000288,None,,,,,,,,,,,,,,,,,,,,,,,,,,,,,,,,,,,,,,,,,hyz1102,001,2021_Nov_02_1458,FigureTest,2021.2.1,60.05241375433173,
PreCondition\CS+1.BMP,-0.1,,,,,,0,0,0,0,0,6,6,1,,,,,,,,,,,,,,,,,,,,,,,,,,,,,98.8959809000371,None,98.8959809000371,100.89302120002685,100.90966170001775,None,,,,,,,,,,,,,,,,,,,,,,,,,,,,,,,,,,,,,,,,,hyz1102,001,2021_Nov_02_1458,FigureTest,2021.2.1,60.05241375433173,
PreCondition\CS+1.BMP,-0.1,,,,,,0,0,0,0,0,7,7,3,,,,,,,,,,,,,,,,,,,,,,,,,,,,,101.95980420004344,None,101.95980420004344,103.94355980004184,103.96041860000696,None,,,,,,,,,,,,,,,,,,,,,,,,,,,,,,,,,,,,,,,,,hyz1102,001,2021_Nov_02_1458,FigureTest,2021.2.1,60.05241375433173,
PreCondition\CS+1.BMP,-0.1,,,,,,0,0,0,0,0,8,8,4,,,,,,,,,,,,,,,,,,,,,,,,,,,,,105.1453351000091,None,105.1453351000091,107.14253310003551,107.15911160001997,None,,,,,,,,,,,,,,,,,,,,,,,,,,,,,,,,,,,,,,,,,hyz1102,001,2021_Nov_02_1458,FigureTest,2021.2.1,60.05241375433173,
PreCondition\CS-1.BMP,0.4,,,,,,0,0,0,0,0,9,9,7,,,,,,,,,,,,,,,,,,,,,,,,,,,,,108.44766670005629,None,108.44766670005629,None,110.44300170004135,None,,,,,,,,,,,,,,,,,,,,,,,,,,,,,,,,,,,,,,,,,hyz1102,001,2021_Nov_02_1458,FigureTest,2021.2.1,60.05241375433173,
,-0.1,Rating\ratingCS+1.png,,,,,0,0,0,0,,,,,0,0,0,0,,,,,,,,,,,,,,,,,,,,,,,,,,,,,,,115.74586330004968,None,115.74586330004968,None,1.8515624999999998,4.433759999985341,115.74586330004968,None,,,,,,,,,,,,,,,,,,,,,,,,,,,,,,,,,hyz1102,001,2021_Nov_02_1458,FigureTest,2021.2.1,60.05241375433173,
,0.4,Rating\ratingCS-1.png,,,,,0,0,0,0,,,,,0,1,1,1,,,,,,,,,,,,,,,,,,,,,,,,,,,,,,,121.8374001000193,None,121.8374001000193,None,1.7421874999999996,1.736419000022579,121.8374001000193,None,,,,,,,,,,,,,,,,,,,,,,,,,,,,,,,,,hyz1102,001,2021_Nov_02_1458,FigureTest,2021.2.1,60.05241375433173,
,0.9,,Condition\CS+1.BMP,Condition\UCS1.BMP,Sound\scream1.wav,,0,0,0,0,,,,,,,,,0,0,0,5,,,,,,,,,,,,,,,,,,,,,,,,,128.94840910000494,None,,,,,,,,,123.3569567000377,None,123.3569567000377,None,space,2.489462499972433,123.3569567000377,None,125.89776680001523,None,125.89776680001523,None,127.9027536000358,None,127.9027536000358,None,127.91226716001984,None,,,,,,,,,,,,,,,hyz1102,001,2021_Nov_02_1458,FigureTest,2021.2.1,60.05241375433173,
,-0.1,,Condition\CS+1.BMP,Condition\black.PNG,Sound\silent.wav,,0,0,0,0,,,,,,,,,0,1,1,1,,,,,,,,,,,,,,,,,,,,,,,,,135.65794950001873,None,,,,,,,,,,,,,,,,,130.1612075000303,None,130.1612075000303,None,None,None,None,None,None,None,,,,,,,,,,,,,,,hyz1102,001,2021_Nov_02_1458,FigureTest,2021.2.1,60.05241375433173,
,-0.1,,Condition\CS+1.BMP,Condition\black.PNG,Sound\silent.wav,,0,0,0,0,,,,,,,,,0,2,2,0,,,,,,,,,,,,,,,,,,,,,,,,,139.94615850003902,None,,,,,,,,,,,,,,,,,136.84605350001948,None,136.84605350001948,None,139.8810625000042,None,139.8810625000042,None,139.80787824012805,None,,,,,,,,,,,,,,,hyz1102,001,2021_Nov_02_1458,FigureTest,2021.2.1,60.05241375433173,
,0.4,,Condition\CS-1.BMP,Condition\black.PNG,Sound\silent.wav,,0,0,0,0,,,,,,,,,0,3,3,23,,,,,,,,,,,,,,,,,,,,,,,,,144.22230780002428,None,,,,,,,,,,,,,,,,,141.15270360000432,None,141.15270360000432,None,144.16345310001634,None,144.16345310001634,None,144.1025210401276,None,,,,,,,,,,,,,,,hyz1102,001,2021_Nov_02_1458,FigureTest,2021.2.1,60.05241375433173,
,0.4,,Condition\CS-1.BMP,Condition\black.PNG,Sound\silent.wav,,0,0,0,0,,,,,,,,,0,4,4,21,,,,,,,,,,,,,,,,,,,,,,,,,148.46749870001804,None,,,,,,,,,,,,,,,,,145.38336860004347,None,145.38336860004347,None,148.35318590002134,None,148.35318590002134,None,148.33336674014572,None,,,,,,,,,,,,,,,hyz1102,001,2021_Nov_02_1458,FigureTest,2021.2.1,60.05241375433173,
,0.4,,Condition\CS-1.BMP,Condition\black.PNG,Sound\silent.wav,,0,0,0,0,,,,,,,,,0,5,5,18,,,,,,,,,,,,,,,,,,,,,,,,,152.64480260002892,None,,,,,,,,,,,,,,,,,149.56323180004256,None,149.56323180004256,None,152.55816730001243,None,152.55816730001243,None,152.53928237018408,None,,,,,,,,,,,,,,,hyz1102,001,2021_Nov_02_1458,FigureTest,2021.2.1,60.05241375433173,
,0.4,,Condition\CS-1.BMP,Condition\black.PNG,Sound\silent.wav,,0,0,0,0,,,,,,,,,0,6,6,20,,,,,,,,,,,,,,,,,,,,,,,,,156.94087410002248,None,,,,,,,,,,,,,,,,,153.83496350003406,None,153.83496350003406,None,156.86843220004812,None,156.86843220004812,None,156.7941053401446,None,,,,,,,,,,,,,,,hyz1102,001,2021_Nov_02_1458,FigureTest,2021.2.1,60.05241375433173,
,0.4,,Condition\CS-1.BMP,Condition\black.PNG,Sound\silent.wav,,0,0,0,0,,,,,,,,,0,7,7,24,,,,,,,,,,,,,,,,,,,,,,,,,161.06195300002582,None,,,,,,,,,,,,,,,,,157.99230850004824,None,157.99230850004824,None,161.02657810004894,None,161.02657810004894,None,160.97280897013843,None,,,,,,,,,,,,,,,hyz1102,001,2021_Nov_02_1458,FigureTest,2021.2.1,60.05241375433173,
,0.4,,Condition\CS-1.BMP,Condition\black.PNG,Sound\silent.wav,,0,0,0,0,,,,,,,,,0,8,8,22,,,,,,,,,,,,,,,,,,,,,,,,,165.63547010003822,None,,,,,,,,,,,,,,,,,162.55595820001327,None,162.55595820001327,None,165.58703950000927,None,165.58703950000927,None,165.51380814018194,None,,,,,,,,,,,,,,,hyz1102,001,2021_Nov_02_1458,FigureTest,2021.2.1,60.05241375433173,
,0.4,,Condition\CS-1.BMP,Condition\black.PNG,Sound\silent.wav,,0,0,0,0,,,,,,,,,0,9,9,26,,,,,,,,,,,,,,,,,,,,,,,,,169.87298030004604,None,,,,,,,,,,,,,,,,,166.84154470002977,None,166.84154470002977,None,169.80838350002887,None,169.80838350002887,None,169.79143774014665,None,,,,,,,,,,,,,,,hyz1102,001,2021_Nov_02_1458,FigureTest,2021.2.1,60.05241375433173,
,0.9,,Condition\CS+1.BMP,Condition\UCS1.BMP,Sound\scream1.wav,,0,0,0,0,,,,,,,,,0,10,10,11,,,,,,,,,,,,,,,,,,,,,,,,,174.21660340001108,None,,,,,,,,,,,,,,,,,171.20224260003306,None,171.20224260003306,None,173.30431560002035,None,173.30431560002035,None,173.31183974002488,None,,,,,,,,,,,,,,,hyz1102,001,2021_Nov_02_1458,FigureTest,2021.2.1,60.05241375433173,
,0.9,,Condition\CS+1.BMP,Condition\UCS1.BMP,Sound\scream1.wav,,0,0,0,0,,,,,,,,,0,11,11,14,,,,,,,,,,,,,,,,,,,,,,,,,178.71513520000735,None,,,,,,,,,,,,,,,,,175.67358870001044,None,175.67358870001044,None,177.68183200003114,None,177.68183200003114,None,177.6899796600337,None,,,,,,,,,,,,,,,hyz1102,001,2021_Nov_02_1458,FigureTest,2021.2.1,60.05241375433173,
,0.9,,Condition\CS+1.BMP,Condition\UCS1.BMP,Sound\scream1.wav,,0,0,0,0,,,,,,,,,0,12,12,7,,,,,,,,,,,,,,,,,,,,,,,,,182.87304230005248,None,,,,,,,,,,,,,,,,,179.82991650002077,None,179.82991650002077,None,181.85663490003208,None,181.85663490003208,None,181.85773256001994,None,,,,,,,,,,,,,,,hyz1102,001,2021_Nov_02_1458,FigureTest,2021.2.1,60.05241375433173,
,0.4,,Condition\CS-1.BMP,Condition\black.PNG,Sound\silent.wav,,0,0,0,0,,,,,,,,,0,13,13,19,,,,,,,,,,,,,,,,,,,,,,,,,189.65650390001247,None,,,,,,,,,,,,,,,,,184.15117090003332,None,184.15117090003332,None,None,None,None,None,None,None,,,,,,,,,,,,,,,hyz1102,001,2021_Nov_02_1458,FigureTest,2021.2.1,60.05241375433173,
,0.9,,Condition\CS+1.BMP,Condition\UCS1.BMP,Sound\scream1.wav,,0,0,0,0,,,,,,,,,0,14,14,4,,,,,,,,,,,,,,,,,,,,,,,,,193.80766760004917,None,,,,,,,,,,,,,,,,,190.79856360005215,None,190.79856360005215,None,192.91289570002118,None,192.91289570002118,None,192.9233771400177,None,,,,,,,,,,,,,,,hyz1102,001,2021_Nov_02_1458,FigureTest,2021.2.1,60.05241375433173,
,0.9,,Condition\CS+1.BMP,Condition\UCS1.BMP,Sound\scream1.wav,,0,0,0,0,,,,,,,,,0,15,15,10,,,,,,,,,,,,,,,,,,,,,,,,,198.02195470000152,None,,,,,,,,,,,,,,,,,194.96705180004938,None,194.96705180004938,None,196.98862920003012,None,196.98862920003012,None,196.99905386002501,None,,,,,,,,,,,,,,,hyz1102,001,2021_Nov_02_1458,FigureTest,2021.2.1,60.05241375433173,
,-0.1,,Condition\CS+1.BMP,Condition\black.PNG,Sound\silent.wav,,0,0,0,0,,,,,,,,,0,16,16,2,,,,,,,,,,,,,,,,,,,,,,,,,204.60347690002527,None,,,,,,,,,,,,,,,,,199.09880950005027,None,199.09880950005027,None,None,None,None,None,None,None,,,,,,,,,,,,,,,hyz1102,001,2021_Nov_02_1458,FigureTest,2021.2.1,60.05241375433173,
,0.9,,Condition\CS+1.BMP,Condition\UCS1.BMP,Sound\scream1.wav,,0,0,0,0,,,,,,,,,0,17,17,8,,,,,,,,,,,,,,,,,,,,,,,,,208.88873330003116,None,,,,,,,,,,,,,,,,,205.87093300005654,None,205.87093300005654,None,207.99327330000233,None,207.99327330000233,None,208.0029999400722,None,,,,,,,,,,,,,,,hyz1102,001,2021_Nov_02_1458,FigureTest,2021.2.1,60.05241375433173,
,0.4,,Condition\CS-1.BMP,Condition\black.PNG,Sound\silent.wav,,0,0,0,0,,,,,,,,,0,18,18,15,,,,,,,,,,,,,,,,,,,,,,,,,215.4762456000317,None,,,,,,,,,,,,,,,,,209.96944300003815,None,209.96944300003815,None,None,None,None,None,None,None,,,,,,,,,,,,,,,hyz1102,001,2021_Nov_02_1458,FigureTest,2021.2.1,60.05241375433173,
,0.4,,Condition\CS-1.BMP,Condition\black.PNG,Sound\silent.wav,,0,0,0,0,,,,,,,,,0,19,19,28,,,,,,,,,,,,,,,,,,,,,,,,,219.7905507000396,None,,,,,,,,,,,,,,,,,216.7091862000525,None,216.7091862000525,None,219.71861580002587,None,219.71861580002587,None,219.66110574017512,None,,,,,,,,,,,,,,,hyz1102,001,2021_Nov_02_1458,FigureTest,2021.2.1,60.05241375433173,
,0.9,,Condition\CS+1.BMP,Condition\UCS1.BMP,Sound\scream1.wav,,0,0,0,0,,,,,,,,,0,20,20,9,,,,,,,,,,,,,,,,,,,,,,,,,223.8661104000057,None,,,,,,,,,,,,,,,,,220.86573650001083,None,220.86573650001083,None,222.96001320000505,None,222.96001320000505,None,222.95622731006006,None,,,,,,,,,,,,,,,hyz1102,001,2021_Nov_02_1458,FigureTest,2021.2.1,60.05241375433173,
,0.4,,Condition\CS-1.BMP,Condition\black.PNG,Sound\silent.wav,,0,0,0,0,,,,,,,,,0,21,21,25,,,,,,,,,,,,,,,,,,,,,,,,,230.52274660003604,None,,,,,,,,,,,,,,,,,224.9856549000251,None,224.9856549000251,None,None,None,None,None,None,None,,,,,,,,,,,,,,,hyz1102,001,2021_Nov_02_1458,FigureTest,2021.2.1,60.05241375433173,
,0.9,,Condition\CS+1.BMP,Condition\UCS1.BMP,Sound\scream1.wav,,0,0,0,0,,,,,,,,,0,22,22,3,,,,,,,,,,,,,,,,,,,,,,,,,234.93746630003443,None,,,,,,,,,,,,,,,,,231.92774830001872,None,231.92774830001872,None,234.0464903000393,None,234.0464903000393,None,234.05375644005835,None,,,,,,,,,,,,,,,hyz1102,001,2021_Nov_02_1458,FigureTest,2021.2.1,60.05241375433173,
,0.4,,Condition\CS-1.BMP,Condition\black.PNG,Sound\silent.wav,,0,0,0,0,,,,,,,,,0,23,23,16,,,,,,,,,,,,,,,,,,,,,,,,,241.79261680005584,None,,,,,,,,,,,,,,,,,236.2979086000123,None,236.2979086000123,None,None,None,None,None,None,None,,,,,,,,,,,,,,,hyz1102,001,2021_Nov_02_1458,FigureTest,2021.2.1,60.05241375433173,
,0.4,,Condition\CS-1.BMP,Condition\black.PNG,Sound\silent.wav,,0,0,0,0,,,,,,,,,0,24,24,27,,,,,,,,,,,,,,,,,,,,,,,,,245.94515090005007,None,,,,,,,,,,,,,,,,,242.9022193000419,None,242.9022193000419,None,245.91428520000773,None,245.91428520000773,None,245.8350538101513,None,,,,,,,,,,,,,,,hyz1102,001,2021_Nov_02_1458,FigureTest,2021.2.1,60.05241375433173,
,0.9,,Condition\CS+1.BMP,Condition\UCS1.BMP,Sound\scream1.wav,,0,0,0,0,,,,,,,,,0,25,25,12,,,,,,,,,,,,,,,,,,,,,,,,,250.02459750004346,None,,,,,,,,,,,,,,,,,247.0269588000374,None,247.0269588000374,None,249.13740940002026,None,249.13740940002026,None,249.13496431004023,None,,,,,,,,,,,,,,,hyz1102,001,2021_Nov_02_1458,FigureTest,2021.2.1,60.05241375433173,
,0.4,,Condition\CS-1.BMP,Condition\black.PNG,Sound\silent.wav,,0,0,0,0,,,,,,,,,0,26,26,29,,,,,,,,,,,,,,,,,,,,,,,,,256.7077705000411,None,,,,,,,,,,,,,,,,,251.1787406000076,None,251.1787406000076,None,None,None,None,None,None,None,,,,,,,,,,,,,,,hyz1102,001,2021_Nov_02_1458,FigureTest,2021.2.1,60.05241375433173,
,0.9,,Condition\CS+1.BMP,Condition\UCS1.BMP,Sound\scream1.wav,,0,0,0,0,,,,,,,,,0,27,27,13,,,,,,,,,,,,,,,,,,,,,,,,,261.0461684000329,None,,,,,,,,,,,,,,,,,258.04312780004693,None,258.04312780004693,None,260.15658750000875,None,260.15658750000875,None,260.1526242100517,None,,,,,,,,,,,,,,,hyz1102,001,2021_Nov_02_1458,FigureTest,2021.2.1,60.05241375433173,
,0.4,,Condition\CS-1.BMP,Condition\black.PNG,Sound\silent.wav,,0,0,0,0,,,,,,,,,0,28,28,17,,,,,,,,,,,,,,,,,,,,,,,,,267.835827300034,None,,,,,,,,,,,,,,,,,262.3326974000083,None,262.3326974000083,None,None,None,None,None,None,None,,,,,,,,,,,,,,,hyz1102,001,2021_Nov_02_1458,FigureTest,2021.2.1,60.05241375433173,
,0.9,,Condition\CS+1.BMP,Condition\UCS1.BMP,Sound\scream1.wav,,0,0,0,0,,,,,,,,,0,29,29,6,,,,,,,,,,,,,,,,,,,,,,,,,272.21375520003494,None,,,,,,,,,,,,,,,,,269.1601229000371,None,269.1601229000371,None,271.2789683000301,None,271.2789683000301,None,271.28520624001976,None,,,,,,,,,,,,,,,hyz1102,001,2021_Nov_02_1458,FigureTest,2021.2.1,60.05241375433173,
,-0.1,Rating\ratingCS+1.png,,,,,0,0,0,0,,,,,,,,,,,,,0,0,0,0,,,,,,,,,,,,,,,,,,,,,,,274.7895274000475,None,274.7895274000475,None,5.6796875,2.9676375999697484,274.7895274000475,None,,,,,,,,,,,,,,,,,,,,,,,,,,,,,,,,,hyz1102,001,2021_Nov_02_1458,FigureTest,2021.2.1,60.05241375433173,
,0.4,Rating\ratingCS-1.png,,,,,0,0,0,0,,,,,,,,,,,,,0,1,1,1,,,,,,,,,,,,,,,,,,,,,,,279.2714119000011,None,279.2714119000011,None,1.6406250000000002,1.2561356999794953,279.2714119000011,None,,,,,,,,,,,,,,,,,,,,,,,,,,,,,,,,,hyz1102,001,2021_Nov_02_1458,FigureTest,2021.2.1,60.05241375433173,
,,,,,,,0,0,0,0,,,,,,,,,,,,,,,,,,,,,,,,,,,,,,,,,,,,,,,,,,,,,,,,,,,,,,,,,,,,,,,,,,,,,,,,,,,,,,,hyz1102,001,2021_Nov_02_1458,FigureTest,2021.2.1,60.05241375433173,
PreCondition\CS+2.BMP,-0.1,,,,,,1,0,1,0,0,0,0,2,,,,,,,,,,,,,,,,,,,,,280.38314690004336,None,280.38314690004336,None,space,5.142957300005946,280.38314690004336,None,285.5675408000243,None,285.5675408000243,None,287.5664958000416,None,,,,,,,,,,,,,,,,,,,,,,,,,,,,,,,,,,,,,,,,,hyz1102,001,2021_Nov_02_1458,FigureTest,2021.2.1,60.05241375433173,
PreCondition\CS-2.BMP,0.4,,,,,,1,0,1,0,0,1,1,5,,,,,,,,,,,,,,,,,,,,,,,,,,,,,288.7162476000376,None,288.7162476000376,290.69910810003057,290.71562630002154,None,,,,,,,,,,,,,,,,,,,,,,,,,,,,,,,,,,,,,,,,,hyz1102,001,2021_Nov_02_1458,FigureTest,2021.2.1,60.05241375433173,
PreCondition\CS-2.BMP,0.4,,,,,,1,0,1,0,0,2,2,8,,,,,,,,,,,,,,,,,,,,,,,,,,,,,291.81505070003914,None,291.81505070003914,293.7985453000292,293.8152293000021,None,,,,,,,,,,,,,,,,,,,,,,,,,,,,,,,,,,,,,,,,,hyz1102,001,2021_Nov_02_1458,FigureTest,2021.2.1,60.05241375433173,
PreCondition\CS-2.BMP,0.4,,,,,,1,0,1,0,0,3,3,7,,,,,,,,,,,,,,,,,,,,,,,,,,,,,295.09809520002455,None,295.09809520002455,297.0814538000268,297.0982263000333,None,,,,,,,,,,,,,,,,,,,,,,,,,,,,,,,,,,,,,,,,,hyz1102,001,2021_Nov_02_1458,FigureTest,2021.2.1,60.05241375433173,
PreCondition\CS-2.BMP,0.4,,,,,,1,0,1,0,0,4,4,9,,,,,,,,,,,,,,,,,,,,,,,,,,,,,298.46485970000504,None,298.46485970000504,300.4478719000472,300.46449100004975,None,,,,,,,,,,,,,,,,,,,,,,,,,,,,,,,,,,,,,,,,,hyz1102,001,2021_Nov_02_1458,FigureTest,2021.2.1,60.05241375433173,
PreCondition\CS+2.BMP,-0.1,,,,,,1,0,1,0,0,5,5,4,,,,,,,,,,,,,,,,,,,,,,,,,,,,,301.725133800006,None,301.725133800006,303.7144546000054,303.7310998000321,None,,,,,,,,,,,,,,,,,,,,,,,,,,,,,,,,,,,,,,,,,hyz1102,001,2021_Nov_02_1458,FigureTest,2021.2.1,60.05241375433173,
PreCondition\CS+2.BMP,-0.1,,,,,,1,0,1,0,0,6,6,0,,,,,,,,,,,,,,,,,,,,,,,,,,,,,304.86383300001035,None,304.86383300001035,306.84774280001875,306.8636693000444,None,,,,,,,,,,,,,,,,,,,,,,,,,,,,,,,,,,,,,,,,,hyz1102,001,2021_Nov_02_1458,FigureTest,2021.2.1,60.05241375433173,
PreCondition\CS+2.BMP,-0.1,,,,,,1,0,1,0,0,7,7,3,,,,,,,,,,,,,,,,,,,,,,,,,,,,,308.2799595000106,None,308.2799595000106,310.2636279000435,310.2807807000354,None,,,,,,,,,,,,,,,,,,,,,,,,,,,,,,,,,,,,,,,,,hyz1102,001,2021_Nov_02_1458,FigureTest,2021.2.1,60.05241375433173,
PreCondition\CS+2.BMP,-0.1,,,,,,1,0,1,0,0,8,8,1,,,,,,,,,,,,,,,,,,,,,,,,,,,,,311.56320440000854,None,311.56320440000854,313.54922770004487,313.56432990002213,None,,,,,,,,,,,,,,,,,,,,,,,,,,,,,,,,,,,,,,,,,hyz1102,001,2021_Nov_02_1458,FigureTest,2021.2.1,60.05241375433173,
PreCondition\CS-2.BMP,0.4,,,,,,1,0,1,0,0,9,9,6,,,,,,,,,,,,,,,,,,,,,,,,,,,,,314.79605990002165,None,314.79605990002165,316.77934000000823,316.7966329000192,None,,,,,,,,,,,,,,,,,,,,,,,,,,,,,,,,,,,,,,,,,hyz1102,001,2021_Nov_02_1458,FigureTest,2021.2.1,60.05241375433173,
,-0.1,Rating\ratingCS+2.png,,,,,1,0,1,0,,,,,0,0,0,0,,,,,,,,,,,,,,,,,,,,,,,,,,,,,,,319.31768630002625,None,319.31768630002625,None,1.8984374999999996,2.7662854999653064,319.31768630002625,None,,,,,,,,,,,,,,,,,,,,,,,,,,,,,,,,,hyz1102,001,2021_Nov_02_1458,FigureTest,2021.2.1,60.05241375433173,
,0.4,Rating\ratingCS-2.png,,,,,1,0,1,0,,,,,0,1,1,1,,,,,,,,,,,,,,,,,,,,,,,,,,,,,,,323.6024321000441,None,323.6024321000441,None,1.703125,0.9151729999575764,323.6024321000441,None,,,,,,,,,,,,,,,,,,,,,,,,,,,,,,,,,hyz1102,001,2021_Nov_02_1458,FigureTest,2021.2.1,60.05241375433173,
,0.4,,Condition\CS-2.BMP,Condition\black.PNG,Sound\silent.wav,,1,0,1,0,,,,,,,,,0,0,0,24,,,,,,,,,,,,,,,,,,,,,,,,,332.20605780003825,None,,,,,,,,,324.36064760002773,None,324.36064760002773,None,space,2.293476299964823,324.36064760002773,None,326.6870121000102,None,326.6870121000102,None,None,None,None,None,None,None,,,,,,,,,,,,,,,hyz1102,001,2021_Nov_02_1458,FigureTest,2021.2.1,60.05241375433173,
,0.4,,Condition\CS-2.BMP,Condition\black.PNG,Sound\silent.wav,,1,0,1,0,,,,,,,,,0,1,1,23,,,,,,,,,,,,,,,,,,,,,,,,,336.3833131000283,None,,,,,,,,,,,,,,,,,333.2890928000561,None,333.2890928000561,None,336.2468485000427,None,336.2468485000427,None,336.2223092101631,None,,,,,,,,,,,,,,,hyz1102,001,2021_Nov_02_1458,FigureTest,2021.2.1,60.05241375433173,
,0.9,,Condition\CS+2.BMP,Condition\UCS2.BMP,Sound\scream1.wav,,1,0,1,0,,,,,,,,,0,2,2,12,,,,,,,,,,,,,,,,,,,,,,,,,340.713613800006,None,,,,,,,,,,,,,,,,,337.658639100031,None,337.658639100031,None,339.8024294000352,None,339.8024294000352,None,339.8043509700219,None,,,,,,,,,,,,,,,hyz1102,001,2021_Nov_02_1458,FigureTest,2021.2.1,60.05241375433173,
,0.4,,Condition\CS-2.BMP,Condition\black.PNG,Sound\silent.wav,,1,0,1,0,,,,,,,,,0,3,3,27,,,,,,,,,,,,,,,,,,,,,,,,,347.2510646000155,None,,,,,,,,,,,,,,,,,341.74386960000265,None,341.74386960000265,None,None,None,None,None,None,None,,,,,,,,,,,,,,,hyz1102,001,2021_Nov_02_1458,FigureTest,2021.2.1,60.05241375433173,
,-0.1,,Condition\CS+2.BMP,Condition\black.PNG,Sound\silent.wav,,1,0,1,0,,,,,,,,,0,4,4,0,,,,,,,,,,,,,,,,,,,,,,,,,351.5202612000285,None,,,,,,,,,,,,,,,,,348.5016241000267,None,348.5016241000267,None,351.4840824000421,None,351.4840824000421,None,351.45066674012924,None,,,,,,,,,,,,,,,hyz1102,001,2021_Nov_02_1458,FigureTest,2021.2.1,60.05241375433173,
,0.4,,Condition\CS-2.BMP,Condition\black.PNG,Sound\silent.wav,,1,0,1,0,,,,,,,,,0,5,5,19,,,,,,,,,,,,,,,,,,,,,,,,,355.8623920000391,None,,,,,,,,,,,,,,,,,352.7921048999997,None,352.7921048999997,None,355.8108393000439,None,355.8108393000439,None,355.7376875101472,None,,,,,,,,,,,,,,,hyz1102,001,2021_Nov_02_1458,FigureTest,2021.2.1,60.05241375433173,
,0.4,,Condition\CS-2.BMP,Condition\black.PNG,Sound\silent.wav,,1,0,1,0,,,,,,,,,0,6,6,28,,,,,,,,,,,,,,,,,,,,,,,,,360.2958367000101,None,,,,,,,,,,,,,,,,,357.23212970001623,None,357.23212970001623,None,360.25968840002315,None,360.25968840002315,None,360.1836413401761,None,,,,,,,,,,,,,,,hyz1102,001,2021_Nov_02_1458,FigureTest,2021.2.1,60.05241375433173,
,0.4,,Condition\CS-2.BMP,Condition\black.PNG,Sound\silent.wav,,1,0,1,0,,,,,,,,,0,7,7,29,,,,,,,,,,,,,,,,,,,,,,,,,364.5227372000227,None,,,,,,,,,,,,,,,,,361.48209370003315,None,361.48209370003315,None,364.49467500002356,None,364.49467500002356,None,364.4305931101553,None,,,,,,,,,,,,,,,hyz1102,001,2021_Nov_02_1458,FigureTest,2021.2.1,60.05241375433173,
,0.4,,Condition\CS-2.BMP,Condition\black.PNG,Sound\silent.wav,,1,0,1,0,,,,,,,,,0,8,8,20,,,,,,,,,,,,,,,,,,,,,,,,,368.79733760003,None,,,,,,,,,,,,,,,,,365.6991608000244,None,365.6991608000244,None,368.70690950000426,None,368.70690950000426,None,368.63203421013895,None,,,,,,,,,,,,,,,hyz1102,001,2021_Nov_02_1458,FigureTest,2021.2.1,60.05241375433173,
,0.9,,Condition\CS+2.BMP,Condition\UCS2.BMP,Sound\scream1.wav,,1,0,1,0,,,,,,,,,0,9,9,9,,,,,,,,,,,,,,,,,,,,,,,,,373.02825880004093,None,,,,,,,,,,,,,,,,,370.0130955000059,None,370.0130955000059,None,372.1454978000256,None,372.1454978000256,None,372.145867370069,None,,,,,,,,,,,,,,,hyz1102,001,2021_Nov_02_1458,FigureTest,2021.2.1,60.05241375433173,
,-0.1,,Condition\CS+2.BMP,Condition\black.PNG,Sound\silent.wav,,1,0,1,0,,,,,,,,,0,10,10,2,,,,,,,,,,,,,,,,,,,,,,,,,379.6574930000352,None,,,,,,,,,,,,,,,,,374.16623670002446,None,374.16623670002446,None,None,None,None,None,None,None,,,,,,,,,,,,,,,hyz1102,001,2021_Nov_02_1458,FigureTest,2021.2.1,60.05241375433173,
,0.9,,Condition\CS+2.BMP,Condition\UCS2.BMP,Sound\scream1.wav,,1,0,1,0,,,,,,,,,0,11,11,5,,,,,,,,,,,,,,,,,,,,,,,,,383.8686074000434,None,,,,,,,,,,,,,,,,,380.8379864000017,None,380.8379864000017,None,382.9497298000497,None,382.9497298000497,None,382.95480264007347,None,,,,,,,,,,,,,,,hyz1102,001,2021_Nov_02_1458,FigureTest,2021.2.1,60.05241375433173,
,0.9,,Condition\CS+2.BMP,Condition\UCS2.BMP,Sound\scream1.wav,,1,0,1,0,,,,,,,,,0,12,12,14,,,,,,,,,,,,,,,,,,,,,,,,,388.12815709999995,None,,,,,,,,,,,,,,,,,385.1027783000027,None,385.1027783000027,None,387.11903750000056,None,387.11903750000056,None,387.1206278600148,None,,,,,,,,,,,,,,,hyz1102,001,2021_Nov_02_1458,FigureTest,2021.2.1,60.05241375433173,
,-0.1,,Condition\CS+2.BMP,Condition\black.PNG,Sound\silent.wav,,1,0,1,0,,,,,,,,,0,13,13,1,,,,,,,,,,,,,,,,,,,,,,,,,394.85647350002546,None,,,,,,,,,,,,,,,,,389.4023402000312,None,389.4023402000312,None,None,None,None,None,None,None,,,,,,,,,,,,,,,hyz1102,001,2021_Nov_02_1458,FigureTest,2021.2.1,60.05241375433173,
,0.9,,Condition\CS+2.BMP,Condition\UCS2.BMP,Sound\scream1.wav,,1,0,1,0,,,,,,,,,0,14,14,4,,,,,,,,,,,,,,,,,,,,,,,,,399.13375780003844,None,,,,,,,,,,,,,,,,,396.0925467000343,None,396.0925467000343,None,398.215701100009,None,398.215701100009,None,398.2246318400721,None,,,,,,,,,,,,,,,hyz1102,001,2021_Nov_02_1458,FigureTest,2021.2.1,60.05241375433173,
,0.9,,Condition\CS+2.BMP,Condition\UCS2.BMP,Sound\scream1.wav,,1,0,1,0,,,,,,,,,0,15,15,10,,,,,,,,,,,,,,,,,,,,,,,,,403.3672393000452,None,,,,,,,,,,,,,,,,,400.3072282000212,None,400.3072282000212,None,402.32455910003046,None,402.32455910003046,None,402.3347789600375,None,,,,,,,,,,,,,,,hyz1102,001,2021_Nov_02_1458,FigureTest,2021.2.1,60.05241375433173,
,0.4,,Condition\CS-2.BMP,Condition\black.PNG,Sound\silent.wav,,1,0,1,0,,,,,,,,,0,16,16,15,,,,,,,,,,,,,,,,,,,,,,,,,410.3246543999994,None,,,,,,,,,,,,,,,,,404.8513196000131,None,404.8513196000131,None,None,None,None,None,None,None,,,,,,,,,,,,,,,hyz1102,001,2021_Nov_02_1458,FigureTest,2021.2.1,60.05241375433173,
,0.9,,Condition\CS+2.BMP,Condition\UCS2.BMP,Sound\scream1.wav,,1,0,1,0,,,,,,,,,0,17,17,11,,,,,,,,,,,,,,,,,,,,,,,,,414.44075980002526,None,,,,,,,,,,,,,,,,,411.4089553000522,None,411.4089553000522,None,413.5257498000283,None,413.5257498000283,None,413.52628284005914,None,,,,,,,,,,,,,,,hyz1102,001,2021_Nov_02_1458,FigureTest,2021.2.1,60.05241375433173,
,0.4,,Condition\CS-2.BMP,Condition\black.PNG,Sound\silent.wav,,1,0,1,0,,,,,,,,,0,18,18,26,,,,,,,,,,,,,,,,,,,,,,,,,421.46741219999967,None,,,,,,,,,,,,,,,,,416.00134140002774,None,416.00134140002774,None,None,None,None,None,None,None,,,,,,,,,,,,,,,hyz1102,001,2021_Nov_02_1458,FigureTest,2021.2.1,60.05241375433173,
,0.9,,Condition\CS+2.BMP,Condition\UCS2.BMP,Sound\scream1.wav,,1,0,1,0,,,,,,,,,0,19,19,3,,,,,,,,,,,,,,,,,,,,,,,,,425.562069000036,None,,,,,,,,,,,,,,,,,422.55259820003994,None,422.55259820003994,None,424.67449550004676,None,424.67449550004676,None,424.6830576400389,None,,,,,,,,,,,,,,,hyz1102,001,2021_Nov_02_1458,FigureTest,2021.2.1,60.05241375433173,
,0.9,,Condition\CS+2.BMP,Condition\UCS2.BMP,Sound\scream1.wav,,1,0,1,0,,,,,,,,,0,20,20,8,,,,,,,,,,,,,,,,,,,,,,,,,429.78479470004095,None,,,,,,,,,,,,,,,,,426.76086150004994,None,426.76086150004994,None,428.77524770004675,None,428.77524770004675,None,428.7796431600582,None,,,,,,,,,,,,,,,hyz1102,001,2021_Nov_02_1458,FigureTest,2021.2.1,60.05241375433173,
,0.4,,Condition\CS-2.BMP,Condition\black.PNG,Sound\silent.wav,,1,0,1,0,,,,,,,,,0,21,21,22,,,,,,,,,,,,,,,,,,,,,,,,,436.5937430000049,None,,,,,,,,,,,,,,,,,431.0937697000336,None,431.0937697000336,None,None,None,None,None,None,None,,,,,,,,,,,,,,,hyz1102,001,2021_Nov_02_1458,FigureTest,2021.2.1,60.05241375433173,
,0.4,,Condition\CS-2.BMP,Condition\black.PNG,Sound\silent.wav,,1,0,1,0,,,,,,,,,0,22,22,16,,,,,,,,,,,,,,,,,,,,,,,,,440.7932102000341,None,,,,,,,,,,,,,,,,,437.76165600004606,None,437.76165600004606,None,440.74046840000665,None,440.74046840000665,None,440.67753888014704,None,,,,,,,,,,,,,,,hyz1102,001,2021_Nov_02_1458,FigureTest,2021.2.1,60.05241375433173,
,0.4,,Condition\CS-2.BMP,Condition\black.PNG,Sound\silent.wav,,1,0,1,0,,,,,,,,,0,23,23,18,,,,,,,,,,,,,,,,,,,,,,,,,444.8680667000008,None,,,,,,,,,,,,,,,,,441.8328147000284,None,441.8328147000284,None,444.8251716000377,None,444.8251716000377,None,444.7609844801482,None,,,,,,,,,,,,,,,hyz1102,001,2021_Nov_02_1458,FigureTest,2021.2.1,60.05241375433173,
,0.9,,Condition\CS+2.BMP,Condition\UCS2.BMP,Sound\scream1.wav,,1,0,1,0,,,,,,,,,0,24,24,6,,,,,,,,,,,,,,,,,,,,,,,,,449.13150560000213,None,,,,,,,,,,,,,,,,,446.1132743000053,None,446.1132743000053,None,448.2282157000154,None,448.2282157000154,None,448.23047924006823,None,,,,,,,,,,,,,,,hyz1102,001,2021_Nov_02_1458,FigureTest,2021.2.1,60.05241375433173,
,0.4,,Condition\CS-2.BMP,Condition\black.PNG,Sound\silent.wav,,1,0,1,0,,,,,,,,,0,25,25,17,,,,,,,,,,,,,,,,,,,,,,,,,455.8449725000537,None,,,,,,,,,,,,,,,,,450.3479134000372,None,450.3479134000372,None,None,None,None,None,None,None,,,,,,,,,,,,,,,hyz1102,001,2021_Nov_02_1458,FigureTest,2021.2.1,60.05241375433173,
,0.4,,Condition\CS-2.BMP,Condition\black.PNG,Sound\silent.wav,,1,0,1,0,,,,,,,,,0,26,26,21,,,,,,,,,,,,,,,,,,,,,,,,,460.2210410000407,None,,,,,,,,,,,,,,,,,457.1532400000142,None,457.1532400000142,None,460.1612419000012,None,460.1612419000012,None,460.09399011015194,None,,,,,,,,,,,,,,,hyz1102,001,2021_Nov_02_1458,FigureTest,2021.2.1,60.05241375433173,
,0.9,,Condition\CS+2.BMP,Condition\UCS2.BMP,Sound\scream1.wav,,1,0,1,0,,,,,,,,,0,27,27,7,,,,,,,,,,,,,,,,,,,,,,,,,464.3732521000202,None,,,,,,,,,,,,,,,,,461.36656200001016,None,461.36656200001016,None,463.4994792000507,None,463.4994792000507,None,463.49868524004705,None,,,,,,,,,,,,,,,hyz1102,001,2021_Nov_02_1458,FigureTest,2021.2.1,60.05241375433173,
,0.9,,Condition\CS+2.BMP,Condition\UCS2.BMP,Sound\scream1.wav,,1,0,1,0,,,,,,,,,0,28,28,13,,,,,,,,,,,,,,,,,,,,,,,,,468.7124345000484,None,,,,,,,,,,,,,,,,,465.6639430000214,None,465.6639430000214,None,467.6819444000139,None,467.6819444000139,None,467.68779846001416,None,,,,,,,,,,,,,,,hyz1102,001,2021_Nov_02_1458,FigureTest,2021.2.1,60.05241375433173,
,0.4,,Condition\CS-2.BMP,Condition\black.PNG,Sound\silent.wav,,1,0,1,0,,,,,,,,,0,29,29,25,,,,,,,,,,,,,,,,,,,,,,,,,475.455202000041,None,,,,,,,,,,,,,,,,,469.95411610003794,None,469.95411610003794,None,None,None,None,None,None,None,,,,,,,,,,,,,,,hyz1102,001,2021_Nov_02_1458,FigureTest,2021.2.1,60.05241375433173,
,-0.1,Rating\ratingCS+2.png,,,,,1,0,1,0,,,,,,,,,,,,,0,0,0,0,,,,,,,,,,,,,,,,,,,,,,,477.9936154000461,None,477.9936154000461,None,4.7890625,21.434963100007735,477.9936154000461,None,,,,,,,,,,,,,,,,,,,,,,,,,,,,,,,,,hyz1102,001,2021_Nov_02_1458,FigureTest,2021.2.1,60.05241375433173,
,0.4,Rating\ratingCS-2.png,,,,,1,0,1,0,,,,,,,,,,,,,0,1,1,1,,,,,,,,,,,,,,,,,,,,,,,501.0082818000228,None,501.0082818000228,None,2.0390624999999996,1.5985153000219725,501.0082818000228,None,,,,,,,,,,,,,,,,,,,,,,,,,,,,,,,,,hyz1102,001,2021_Nov_02_1458,FigureTest,2021.2.1,60.05241375433173,
,,,,,,,1,0,1,0,,,,,,,,,,,,,,,,,,,,,,,,,,,,,,,,,,,,,,,,,,,,,,,,,,,,,,,,,,,,,,,,,,,,,,,,,,,,,,,hyz1102,001,2021_Nov_02_1458,FigureTest,2021.2.1,60.05241375433173,
PreCondition\CS-3.BMP,0.4,,,,,,2,0,2,0,0,0,0,8,,,,,,,,,,,,,,,,,,,,,502.48065730003873,None,502.48065730003873,None,space,2.8767889000009745,502.48065730003873,None,505.38553910003975,None,505.38553910003975,507.3829173000413,507.3997826000559,None,,,,,,,,,,,,,,,,,,,,,,,,,,,,,,,,,,,,,,,,,hyz1102,001,2021_Nov_02_1458,FigureTest,2021.2.1,60.05241375433173,
PreCondition\CS-3.BMP,0.4,,,,,,2,0,2,0,0,1,1,6,,,,,,,,,,,,,,,,,,,,,,,,,,,,,508.86960590002127,None,508.86960590002127,510.8655726000434,510.8825740000466,None,,,,,,,,,,,,,,,,,,,,,,,,,,,,,,,,,,,,,,,,,hyz1102,001,2021_Nov_02_1458,FigureTest,2021.2.1,60.05241375433173,
PreCondition\CS+3.BMP,-0.1,,,,,,2,0,2,0,0,2,2,1,,,,,,,,,,,,,,,,,,,,,,,,,,,,,512.1487261000439,None,512.1487261000439,514.1341885000002,514.1511075000162,None,,,,,,,,,,,,,,,,,,,,,,,,,,,,,,,,,,,,,,,,,hyz1102,001,2021_Nov_02_1458,FigureTest,2021.2.1,60.05241375433173,
PreCondition\CS+3.BMP,-0.1,,,,,,2,0,2,0,0,3,3,3,,,,,,,,,,,,,,,,,,,,,,,,,,,,,515.3855954000028,None,515.3855954000028,517.3815470000263,517.3987158000236,None,,,,,,,,,,,,,,,,,,,,,,,,,,,,,,,,,,,,,,,,,hyz1102,001,2021_Nov_02_1458,FigureTest,2021.2.1,60.05241375433173,
PreCondition\CS+3.BMP,-0.1,,,,,,2,0,2,0,0,4,4,0,,,,,,,,,,,,,,,,,,,,,,,,,,,,,518.5483049000031,None,518.5483049000031,520.5313291000202,520.5482650000486,None,,,,,,,,,,,,,,,,,,,,,,,,,,,,,,,,,,,,,,,,,hyz1102,001,2021_Nov_02_1458,FigureTest,2021.2.1,60.05241375433173,
PreCondition\CS+3.BMP,-0.1,,,,,,2,0,2,0,0,5,5,4,,,,,,,,,,,,,,,,,,,,,,,,,,,,,521.6142605000059,None,521.6142605000059,523.5975210000179,523.6143330000341,None,,,,,,,,,,,,,,,,,,,,,,,,,,,,,,,,,,,,,,,,,hyz1102,001,2021_Nov_02_1458,FigureTest,2021.2.1,60.05241375433173,
PreCondition\CS-3.BMP,0.4,,,,,,2,0,2,0,0,6,6,5,,,,,,,,,,,,,,,,,,,,,,,,,,,,,524.8364301000256,None,524.8364301000256,526.831668000028,526.8489173000562,None,,,,,,,,,,,,,,,,,,,,,,,,,,,,,,,,,,,,,,,,,hyz1102,001,2021_Nov_02_1458,FigureTest,2021.2.1,60.05241375433173,
PreCondition\CS+3.BMP,-0.1,,,,,,2,0,2,0,0,7,7,2,,,,,,,,,,,,,,,,,,,,,,,,,,,,,528.0470280000009,None,528.0470280000009,530.0305615000543,530.0473650000058,None,,,,,,,,,,,,,,,,,,,,,,,,,,,,,,,,,,,,,,,,,hyz1102,001,2021_Nov_02_1458,FigureTest,2021.2.1,60.05241375433173,
PreCondition\CS-3.BMP,0.4,,,,,,2,0,2,0,0,8,8,9,,,,,,,,,,,,,,,,,,,,,,,,,,,,,531.3302357000066,None,531.3302357000066,533.313780800032,533.3301057000062,None,,,,,,,,,,,,,,,,,,,,,,,,,,,,,,,,,,,,,,,,,hyz1102,001,2021_Nov_02_1458,FigureTest,2021.2.1,60.05241375433173,
PreCondition\CS-3.BMP,0.4,,,,,,2,0,2,0,0,9,9,7,,,,,,,,,,,,,,,,,,,,,,,,,,,,,534.4539873000467,None,534.4539873000467,None,536.4625383000239,None,,,,,,,,,,,,,,,,,,,,,,,,,,,,,,,,,,,,,,,,,hyz1102,001,2021_Nov_02_1458,FigureTest,2021.2.1,60.05241375433173,
,-0.1,Rating\ratingCS+3.png,,,,,2,0,2,0,,,,,0,0,0,0,,,,,,,,,,,,,,,,,,,,,,,,,,,,,,,539.4790982000413,None,539.4790982000413,None,2.03125,128.48687500000233,539.4790982000413,None,,,,,,,,,,,,,,,,,,,,,,,,,,,,,,,,,hyz1102,001,2021_Nov_02_1458,FigureTest,2021.2.1,60.05241375433173,
,0.4,Rating\ratingCS-3.png,,,,,2,0,2,0,,,,,0,1,1,1,,,,,,,,,,,,,,,,,,,,,,,,,,,,,,,669.6114539000555,None,669.6114539000555,None,1.84375,1.0631483999895863,669.6114539000555,None,,,,,,,,,,,,,,,,,,,,,,,,,,,,,,,,,hyz1102,001,2021_Nov_02_1458,FigureTest,2021.2.1,60.05241375433173,
,0.4,,Condition\CS-3.BMP,Condition\black.PNG,Sound\silent.wav,,2,0,2,0,,,,,,,,,0,0,0,23,,,,,,,,,,,,,,,,,,,,,,,,,674.799178700021,None,,,,,,,,,670.3940360000124,None,670.3940360000124,None,space,1.3237438999931328,670.3940360000124,None,671.754041200038,None,671.754041200038,None,674.7767814000254,None,674.7767814000254,None,674.6988122101757,None,,,,,,,,,,,,,,,hyz1102,001,2021_Nov_02_1458,FigureTest,2021.2.1,60.05241375433173,
,0.9,,Condition\CS+3.BMP,Condition\UCS3.BMP,Sound\scream1.wav,,2,0,2,0,,,,,,,,,0,1,1,12,,,,,,,,,,,,,,,,,,,,,,,,,679.2141973000253,None,,,,,,,,,,,,,,,,,676.1484892000444,None,676.1484892000444,None,678.2589095000294,None,678.2589095000294,None,678.265255240025,None,,,,,,,,,,,,,,,hyz1102,001,2021_Nov_02_1458,FigureTest,2021.2.1,60.05241375433173,
,-0.1,,Condition\CS+3.BMP,Condition\black.PNG,Sound\silent.wav,,2,0,2,0,,,,,,,,,0,2,2,0,,,,,,,,,,,,,,,,,,,,,,,,,685.8880258999998,None,,,,,,,,,,,,,,,,,680.3623607000336,None,680.3623607000336,None,None,None,None,None,None,None,,,,,,,,,,,,,,,hyz1102,001,2021_Nov_02_1458,FigureTest,2021.2.1,60.05241375433173,
,0.9,,Condition\CS+3.BMP,Condition\UCS3.BMP,Sound\scream1.wav,,2,0,2,0,,,,,,,,,0,3,3,5,,,,,,,,,,,,,,,,,,,,,,,,,690.0642772000283,None,,,,,,,,,,,,,,,,,687.017470700026,None,687.017470700026,None,689.1238351000356,None,689.1238351000356,None,689.1343741400633,None,,,,,,,,,,,,,,,hyz1102,001,2021_Nov_02_1458,FigureTest,2021.2.1,60.05241375433173,
,0.9,,Condition\CS+3.BMP,Condition\UCS3.BMP,Sound\scream1.wav,,2,0,2,0,,,,,,,,,0,4,4,8,,,,,,,,,,,,,,,,,,,,,,,,,694.2834523000056,None,,,,,,,,,,,,,,,,,691.2096563000232,None,691.2096563000232,None,693.2188701000414,None,693.2188701000414,None,693.226640560024,None,,,,,,,,,,,,,,,hyz1102,001,2021_Nov_02_1458,FigureTest,2021.2.1,60.05241375433173,
,0.4,,Condition\CS-3.BMP,Condition\black.PNG,Sound\silent.wav,,2,0,2,0,,,,,,,,,0,5,5,16,,,,,,,,,,,,,,,,,,,,,,,,,700.7820367000531,None,,,,,,,,,,,,,,,,,695.3124989000498,None,695.3124989000498,None,None,None,None,None,None,None,,,,,,,,,,,,,,,hyz1102,001,2021_Nov_02_1458,FigureTest,2021.2.1,60.05241375433173,
,0.4,,Condition\CS-3.BMP,Condition\black.PNG,Sound\silent.wav,,2,0,2,0,,,,,,,,,0,6,6,29,,,,,,,,,,,,,,,,,,,,,,,,,705.0547808000119,None,,,,,,,,,,,,,,,,,701.9986388000543,None,701.9986388000543,None,705.0138637000346,None,705.0138637000346,None,704.9483932401636,None,,,,,,,,,,,,,,,hyz1102,001,2021_Nov_02_1458,FigureTest,2021.2.1,60.05241375433173,
,0.4,,Condition\CS-3.BMP,Condition\black.PNG,Sound\silent.wav,,2,0,2,0,,,,,,,,,0,7,7,15,,,,,,,,,,,,,,,,,,,,,,,,,709.3746714000008,None,,,,,,,,,,,,,,,,,706.3012142000371,None,706.3012142000371,None,709.3063062000438,None,709.3063062000438,None,709.236690010177,None,,,,,,,,,,,,,,,hyz1102,001,2021_Nov_02_1458,FigureTest,2021.2.1,60.05241375433173,
,0.4,,Condition\CS-3.BMP,Condition\black.PNG,Sound\silent.wav,,2,0,2,0,,,,,,,,,0,8,8,28,,,,,,,,,,,,,,,,,,,,,,,,,713.6335990000516,None,,,,,,,,,,,,,,,,,710.5762654000428,None,710.5762654000428,None,713.5565836000023,None,713.5565836000023,None,713.4924388801446,None,,,,,,,,,,,,,,,hyz1102,001,2021_Nov_02_1458,FigureTest,2021.2.1,60.05241375433173,
,0.4,,Condition\CS-3.BMP,Condition\black.PNG,Sound\silent.wav,,2,0,2,0,,,,,,,,,0,9,9,17,,,,,,,,,,,,,,,,,,,,,,,,,717.7972109000548,None,,,,,,,,,,,,,,,,,714.7470184000558,None,714.7470184000558,None,717.7399636000046,None,717.7399636000046,None,717.6772451801226,None,,,,,,,,,,,,,,,hyz1102,001,2021_Nov_02_1458,FigureTest,2021.2.1,60.05241375433173,
,0.9,,Condition\CS+3.BMP,Condition\UCS3.BMP,Sound\scream1.wav,,2,0,2,0,,,,,,,,,0,10,10,11,,,,,,,,,,,,,,,,,,,,,,,,,721.9528069000226,None,,,,,,,,,,,,,,,,,718.8993920000503,None,718.8993920000503,None,721.0126127000549,None,721.0126127000549,None,721.0109906100552,None,,,,,,,,,,,,,,,hyz1102,001,2021_Nov_02_1458,FigureTest,2021.2.1,60.05241375433173,
,0.9,,Condition\CS+3.BMP,Condition\UCS3.BMP,Sound\scream1.wav,,2,0,2,0,,,,,,,,,0,11,11,4,,,,,,,,,,,,,,,,,,,,,,,,,726.0132891000248,None,,,,,,,,,,,,,,,,,722.9845958000515,None,722.9845958000515,None,725.0127410000423,None,725.0127410000423,None,725.0163619600353,None,,,,,,,,,,,,,,,hyz1102,001,2021_Nov_02_1458,FigureTest,2021.2.1,60.05241375433173,
,0.9,,Condition\CS+3.BMP,Condition\UCS3.BMP,Sound\scream1.wav,,2,0,2,0,,,,,,,,,0,12,12,14,,,,,,,,,,,,,,,,,,,,,,,,,730.1371800000197,None,,,,,,,,,,,,,,,,,727.0819023000076,None,727.0819023000076,None,729.0919209000422,None,729.0919209000422,None,729.098346260027,None,,,,,,,,,,,,,,,hyz1102,001,2021_Nov_02_1458,FigureTest,2021.2.1,60.05241375433173,
,0.9,,Condition\CS+3.BMP,Condition\UCS3.BMP,Sound\scream1.wav,,2,0,2,0,,,,,,,,,0,13,13,7,,,,,,,,,,,,,,,,,,,,,,,,,734.4462246000185,None,,,,,,,,,,,,,,,,,731.3980072000413,None,731.3980072000413,None,733.4095796000329,None,733.4095796000329,None,733.4153620600118,None,,,,,,,,,,,,,,,hyz1102,001,2021_Nov_02_1458,FigureTest,2021.2.1,60.05241375433173,
,0.9,,Condition\CS+3.BMP,Condition\UCS3.BMP,Sound\scream1.wav,,2,0,2,0,,,,,,,,,0,14,14,3,,,,,,,,,,,,,,,,,,,,,,,,,738.526961800002,None,,,,,,,,,,,,,,,,,735.4600015000324,None,735.4600015000324,None,737.4743043000344,None,737.4743043000344,None,737.4808999600355,None,,,,,,,,,,,,,,,hyz1102,001,2021_Nov_02_1458,FigureTest,2021.2.1,60.05241375433173,
,0.4,,Condition\CS-3.BMP,Condition\black.PNG,Sound\silent.wav,,2,0,2,0,,,,,,,,,0,15,15,27,,,,,,,,,,,,,,,,,,,,,,,,,745.4527560000424,None,,,,,,,,,,,,,,,,,739.9492312000366,None,739.9492312000366,None,None,None,None,None,None,None,,,,,,,,,,,,,,,hyz1102,001,2021_Nov_02_1458,FigureTest,2021.2.1,60.05241375433173,
,0.9,,Condition\CS+3.BMP,Condition\UCS3.BMP,Sound\scream1.wav,,2,0,2,0,,,,,,,,,0,16,16,9,,,,,,,,,,,,,,,,,,,,,,,,,749.9390344000421,None,,,,,,,,,,,,,,,,,746.8692369000055,None,746.8692369000055,None,748.9803845999995,None,748.9803845999995,None,748.9866424400243,None,,,,,,,,,,,,,,,hyz1102,001,2021_Nov_02_1458,FigureTest,2021.2.1,60.05241375433173,
,0.4,,Condition\CS-3.BMP,Condition\black.PNG,Sound\silent.wav,,2,0,2,0,,,,,,,,,0,17,17,21,,,,,,,,,,,,,,,,,,,,,,,,,756.6884019999998,None,,,,,,,,,,,,,,,,,751.1834399000509,None,751.1834399000509,None,None,None,None,None,None,None,,,,,,,,,,,,,,,hyz1102,001,2021_Nov_02_1458,FigureTest,2021.2.1,60.05241375433173,
,0.9,,Condition\CS+3.BMP,Condition\UCS3.BMP,Sound\scream1.wav,,2,0,2,0,,,,,,,,,0,18,18,10,,,,,,,,,,,,,,,,,,,,,,,,,761.0113738000509,None,,,,,,,,,,,,,,,,,757.9895467000315,None,757.9895467000315,None,760.1127675000462,None,760.1127675000462,None,760.1215876400238,None,,,,,,,,,,,,,,,hyz1102,001,2021_Nov_02_1458,FigureTest,2021.2.1,60.05241375433173,
,0.4,,Condition\CS-3.BMP,Condition\black.PNG,Sound\silent.wav,,2,0,2,0,,,,,,,,,0,19,19,20,,,,,,,,,,,,,,,,,,,,,,,,,767.6188880000263,None,,,,,,,,,,,,,,,,,762.1029318000074,None,762.1029318000074,None,None,None,None,None,None,None,,,,,,,,,,,,,,,hyz1102,001,2021_Nov_02_1458,FigureTest,2021.2.1,60.05241375433173,
,0.4,,Condition\CS-3.BMP,Condition\black.PNG,Sound\silent.wav,,2,0,2,0,,,,,,,,,0,20,20,26,,,,,,,,,,,,,,,,,,,,,,,,,771.8760479000048,None,,,,,,,,,,,,,,,,,768.8123560000095,None,768.8123560000095,None,771.7476143000531,None,771.7476143000531,None,771.7292564801755,None,,,,,,,,,,,,,,,hyz1102,001,2021_Nov_02_1458,FigureTest,2021.2.1,60.05241375433173,
,0.4,,Condition\CS-3.BMP,Condition\black.PNG,Sound\silent.wav,,2,0,2,0,,,,,,,,,0,21,21,19,,,,,,,,,,,,,,,,,,,,,,,,,776.2101340000518,None,,,,,,,,,,,,,,,,,773.2007384000462,None,773.2007384000462,None,776.1879114000476,None,776.1879114000476,None,776.1168293801602,None,,,,,,,,,,,,,,,hyz1102,001,2021_Nov_02_1458,FigureTest,2021.2.1,60.05241375433173,
,0.4,,Condition\CS-3.BMP,Condition\black.PNG,Sound\silent.wav,,2,0,2,0,,,,,,,,,0,22,22,22,,,,,,,,,,,,,,,,,,,,,,,,,780.443896700046,None,,,,,,,,,,,,,,,,,777.4260580000118,None,777.4260580000118,None,780.42088780005,None,780.42088780005,None,780.3420087801642,None,,,,,,,,,,,,,,,hyz1102,001,2021_Nov_02_1458,FigureTest,2021.2.1,60.05241375433173,
,0.9,,Condition\CS+3.BMP,Condition\UCS3.BMP,Sound\scream1.wav,,2,0,2,0,,,,,,,,,0,23,23,6,,,,,,,,,,,,,,,,,,,,,,,,,784.7809574000421,None,,,,,,,,,,,,,,,,,781.7252560000052,None,781.7252560000052,None,783.8316164000425,None,783.8316164000425,None,783.8414407400414,None,,,,,,,,,,,,,,,hyz1102,001,2021_Nov_02_1458,FigureTest,2021.2.1,60.05241375433173,
,-0.1,,Condition\CS+3.BMP,Condition\black.PNG,Sound\silent.wav,,2,0,2,0,,,,,,,,,0,24,24,2,,,,,,,,,,,,,,,,,,,,,,,,,791.4783865000354,None,,,,,,,,,,,,,,,,,785.9677440000232,None,785.9677440000232,None,None,None,None,None,None,None,,,,,,,,,,,,,,,hyz1102,001,2021_Nov_02_1458,FigureTest,2021.2.1,60.05241375433173,
,0.9,,Condition\CS+3.BMP,Condition\UCS3.BMP,Sound\scream1.wav,,2,0,2,0,,,,,,,,,0,25,25,13,,,,,,,,,,,,,,,,,,,,,,,,,795.7145434000413,None,,,,,,,,,,,,,,,,,792.6774627000559,None,792.6774627000559,None,794.7959492000518,None,794.7959492000518,None,794.7957190400339,None,,,,,,,,,,,,,,,hyz1102,001,2021_Nov_02_1458,FigureTest,2021.2.1,60.05241375433173,
,0.4,,Condition\CS-3.BMP,Condition\black.PNG,Sound\silent.wav,,2,0,2,0,,,,,,,,,0,26,26,25,,,,,,,,,,,,,,,,,,,,,,,,,802.4617840000428,None,,,,,,,,,,,,,,,,,796.9500583000481,None,796.9500583000481,None,None,None,None,None,None,None,,,,,,,,,,,,,,,hyz1102,001,2021_Nov_02_1458,FigureTest,2021.2.1,60.05241375433173,
,0.4,,Condition\CS-3.BMP,Condition\black.PNG,Sound\silent.wav,,2,0,2,0,,,,,,,,,0,27,27,18,,,,,,,,,,,,,,,,,,,,,,,,,806.7977405000129,None,,,,,,,,,,,,,,,,,803.7808228000067,None,803.7808228000067,None,806.7712080000201,None,806.7712080000201,None,806.7109189801267,None,,,,,,,,,,,,,,,hyz1102,001,2021_Nov_02_1458,FigureTest,2021.2.1,60.05241375433173,
,0.4,,Condition\CS-3.BMP,Condition\black.PNG,Sound\silent.wav,,2,0,2,0,,,,,,,,,0,28,28,24,,,,,,,,,,,,,,,,,,,,,,,,,811.13568940002,None,,,,,,,,,,,,,,,,,808.059163900034,None,808.059163900034,None,811.0409338000463,None,811.0409338000463,None,810.9750987801235,None,,,,,,,,,,,,,,,hyz1102,001,2021_Nov_02_1458,FigureTest,2021.2.1,60.05241375433173,
,-0.1,,Condition\CS+3.BMP,Condition\black.PNG,Sound\silent.wav,,2,0,2,0,,,,,,,,,0,29,29,1,,,,,,,,,,,,,,,,,,,,,,,,,815.5656608000281,None,,,,,,,,,,,,,,,,,812.4940095000202,None,812.4940095000202,None,815.5188439000049,None,815.5188439000049,None,815.4626931701787,None,,,,,,,,,,,,,,,hyz1102,001,2021_Nov_02_1458,FigureTest,2021.2.1,60.05241375433173,
,-0.1,Rating\ratingCS+3.png,,,,,2,0,2,0,,,,,,,,,,,,,0,0,0,0,,,,,,,,,,,,,,,,,,,,,,,818.2311035000021,None,818.2311035000021,None,3.6796875,58.774086399993394,818.2311035000021,None,,,,,,,,,,,,,,,,,,,,,,,,,,,,,,,,,hyz1102,001,2021_Nov_02_1458,FigureTest,2021.2.1,60.05241375433173,
,0.4,Rating\ratingCS-3.png,,,,,2,0,2,0,,,,,,,,,,,,,0,1,1,1,,,,,,,,,,,,,,,,,,,,,,,878.493603800016,None,878.493603800016,None,2.3203125,1.4255448000039905,878.493603800016,None,,,,,,,,,,,,,,,,,,,,,,,,,,,,,,,,,hyz1102,001,2021_Nov_02_1458,FigureTest,2021.2.1,60.05241375433173,
,,,,,,,2,0,2,0,,,,,,,,,,,,,,,,,,,,,,,,,,,,,,,,,,,,,,,,,,,,,,,,,,,,,,,,,,,,,,,,,,,,,,,,,,,,,,,hyz1102,001,2021_Nov_02_1458,FigureTest,2021.2.1,60.05241375433173,
,,,,,,,,,,,,,,,,,,,,,,,,,,,,,,,,,,,,,,,,,,,,,,,,,,,,,,,,,,,,,,,,,,,,,,,,,,,879.9104768000543,None,879.9104768000543,None,space,2.7589115000446327,879.9104768000543,None,,,,,,,hyz1102,001,2021_Nov_02_1458,FigureTest,2021.2.1,60.05241375433173,
,0.4,,,,,Extinction\CS-1.BMP,,,,,,,,,,,,,,,,,,,,,0,0,0,12,,,,,,,,,,,,,,,,,888.713955800049,None,,,,,,,,,,,,,,,,,,,,,,,,,,,,,,,,,,,882.7122500000405,None,882.7122500000405,None,,,hyz1102,001,2021_Nov_02_1458,FigureTest,2021.2.1,60.05241375433173,
,-0.1,,,,,Extinction\CS+1.BMP,,,,,,,,,,,,,,,,,,,,,0,1,1,6,,,,,,,,,,,,,,,,,895.7467251000344,None,,,,,,,,,,,,,,,,,,,,,,,,,,,,,,,,,,,889.7536390000023,None,889.7536390000023,None,,,hyz1102,001,2021_Nov_02_1458,FigureTest,2021.2.1,60.05241375433173,
,-0.1,,,,,Extinction\CS+1.BMP,,,,,,,,,,,,,,,,,,,,,0,2,2,3,,,,,,,,,,,,,,,,,903.0628076000139,None,,,,,,,,,,,,,,,,,,,,,,,,,,,,,,,,,,,897.063403600012,None,897.063403600012,None,,,hyz1102,001,2021_Nov_02_1458,FigureTest,2021.2.1,60.05241375433173,
,0.4,,,,,Extinction\CS-1.BMP,,,,,,,,,,,,,,,,,,,,,0,3,3,16,,,,,,,,,,,,,,,,,910.2286154000321,None,,,,,,,,,,,,,,,,,,,,,,,,,,,,,,,,,,,904.219489500043,None,904.219489500043,None,,,hyz1102,001,2021_Nov_02_1458,FigureTest,2021.2.1,60.05241375433173,
,-0.1,,,,,Extinction\CS+1.BMP,,,,,,,,,,,,,,,,,,,,,0,4,4,4,,,,,,,,,,,,,,,,,917.6454164000461,None,,,,,,,,,,,,,,,,,,,,,,,,,,,,,,,,,,,911.6535839000135,None,911.6535839000135,None,,,hyz1102,001,2021_Nov_02_1458,FigureTest,2021.2.1,60.05241375433173,
,0.4,,,,,Extinction\CS-1.BMP,,,,,,,,,,,,,,,,,,,,,0,5,5,17,,,,,,,,,,,,,,,,,924.7628295000177,None,,,,,,,,,,,,,,,,,,,,,,,,,,,,,,,,,,,918.7498795000138,None,918.7498795000138,None,,,hyz1102,001,2021_Nov_02_1458,FigureTest,2021.2.1,60.05241375433173,
,-0.1,,,,,Extinction\CS+1.BMP,,,,,,,,,,,,,,,,,,,,,0,6,6,9,,,,,,,,,,,,,,,,,932.1108968000044,None,,,,,,,,,,,,,,,,,,,,,,,,,,,,,,,,,,,926.1039459000458,None,926.1039459000458,None,,,hyz1102,001,2021_Nov_02_1458,FigureTest,2021.2.1,60.05241375433173,
,-0.1,,,,,Extinction\CS+1.BMP,,,,,,,,,,,,,,,,,,,,,0,7,7,7,,,,,,,,,,,,,,,,,939.3923688000068,None,,,,,,,,,,,,,,,,,,,,,,,,,,,,,,,,,,,933.3791785000358,None,933.3791785000358,None,,,hyz1102,001,2021_Nov_02_1458,FigureTest,2021.2.1,60.05241375433173,
,-0.1,,,,,Extinction\CS+1.BMP,,,,,,,,,,,,,,,,,,,,,0,8,8,5,,,,,,,,,,,,,,,,,946.6250371000497,None,,,,,,,,,,,,,,,,,,,,,,,,,,,,,,,,,,,940.6253753000055,None,940.6253753000055,None,,,hyz1102,001,2021_Nov_02_1458,FigureTest,2021.2.1,60.05241375433173,
,0.4,,,,,Extinction\CS-1.BMP,,,,,,,,,,,,,,,,,,,,,0,9,9,10,,,,,,,,,,,,,,,,,953.9106755000539,None,,,,,,,,,,,,,,,,,,,,,,,,,,,,,,,,,,,947.9176136000315,None,947.9176136000315,None,,,hyz1102,001,2021_Nov_02_1458,FigureTest,2021.2.1,60.05241375433173,
,0.4,,,,,Extinction\CS-1.BMP,,,,,,,,,,,,,,,,,,,,,0,10,10,15,,,,,,,,,,,,,,,,,961.1900953000295,None,,,,,,,,,,,,,,,,,,,,,,,,,,,,,,,,,,,955.1903672000044,None,955.1903672000044,None,,,hyz1102,001,2021_Nov_02_1458,FigureTest,2021.2.1,60.05241375433173,
,0.4,,,,,Extinction\CS-1.BMP,,,,,,,,,,,,,,,,,,,,,0,11,11,18,,,,,,,,,,,,,,,,,968.5738201000495,None,,,,,,,,,,,,,,,,,,,,,,,,,,,,,,,,,,,962.5734906000434,None,962.5734906000434,None,,,hyz1102,001,2021_Nov_02_1458,FigureTest,2021.2.1,60.05241375433173,
,-0.1,,,,,Extinction\CS+1.BMP,,,,,,,,,,,,,,,,,,,,,0,12,12,8,,,,,,,,,,,,,,,,,975.8887503000442,None,,,,,,,,,,,,,,,,,,,,,,,,,,,,,,,,,,,969.882127000019,None,969.882127000019,None,,,hyz1102,001,2021_Nov_02_1458,FigureTest,2021.2.1,60.05241375433173,
,0.4,,,,,Extinction\CS-1.BMP,,,,,,,,,,,,,,,,,,,,,0,13,13,14,,,,,,,,,,,,,,,,,983.0410239000339,None,,,,,,,,,,,,,,,,,,,,,,,,,,,,,,,,,,,977.0326396000455,None,977.0326396000455,None,,,hyz1102,001,2021_Nov_02_1458,FigureTest,2021.2.1,60.05241375433173,
,-0.1,,,,,Extinction\CS+1.BMP,,,,,,,,,,,,,,,,,,,,,0,14,14,2,,,,,,,,,,,,,,,,,990.1871780000511,None,,,,,,,,,,,,,,,,,,,,,,,,,,,,,,,,,,,984.1826918000006,None,984.1826918000006,None,,,hyz1102,001,2021_Nov_02_1458,FigureTest,2021.2.1,60.05241375433173,
,0.4,,,,,Extinction\CS-1.BMP,,,,,,,,,,,,,,,,,,,,,0,15,15,19,,,,,,,,,,,,,,,,,997.2364473000052,None,,,,,,,,,,,,,,,,,,,,,,,,,,,,,,,,,,,991.2325880000135,None,991.2325880000135,None,,,hyz1102,001,2021_Nov_02_1458,FigureTest,2021.2.1,60.05241375433173,
,-0.1,,,,,Extinction\CS+1.BMP,,,,,,,,,,,,,,,,,,,,,0,16,16,1,,,,,,,,,,,,,,,,,1004.40336570004,None,,,,,,,,,,,,,,,,,,,,,,,,,,,,,,,,,,,998.3994603000465,None,998.3994603000465,None,,,hyz1102,001,2021_Nov_02_1458,FigureTest,2021.2.1,60.05241375433173,
,0.4,,,,,Extinction\CS-1.BMP,,,,,,,,,,,,,,,,,,,,,0,17,17,11,,,,,,,,,,,,,,,,,1011.6852895000484,None,,,,,,,,,,,,,,,,,,,,,,,,,,,,,,,,,,,1005.6813557000132,None,1005.6813557000132,None,,,hyz1102,001,2021_Nov_02_1458,FigureTest,2021.2.1,60.05241375433173,
,-0.1,,,,,Extinction\CS+1.BMP,,,,,,,,,,,,,,,,,,,,,0,18,18,0,,,,,,,,,,,,,,,,,1018.968204600038,None,,,,,,,,,,,,,,,,,,,,,,,,,,,,,,,,,,,1012.9632673000451,None,1012.9632673000451,None,,,hyz1102,001,2021_Nov_02_1458,FigureTest,2021.2.1,60.05241375433173,
,0.4,,,,,Extinction\CS-1.BMP,,,,,,,,,,,,,,,,,,,,,0,19,19,13,,,,,,,,,,,,,,,,,1026.3862437000498,None,,,,,,,,,,,,,,,,,,,,,,,,,,,,,,,,,,,1020.3823690999998,None,1020.3823690999998,None,,,hyz1102,001,2021_Nov_02_1458,FigureTest,2021.2.1,60.05241375433173,
,-0.1,Rating\ratingCS+1.png,,,,,,,,,,,,,,,,,,,,,,,,,,,,,0,0,0,0,,,,,,,,,,,,,,,1029.1817937000305,None,1029.1817937000305,None,1.9765624999999998,124.1137735999655,1029.1817937000305,None,,,,,,,,,,,,,,,,,,,,,,,,,,,,,,,,,hyz1102,001,2021_Nov_02_1458,FigureTest,2021.2.1,60.05241375433173,
,0.4,Rating\ratingCS-1.png,,,,,,,,,,,,,,,,,,,,,,,,,,,,,0,1,1,1,,,,,,,,,,,,,,,1154.788829200028,None,1154.788829200028,None,2.5078125,0.8251727999886498,1154.788829200028,None,,,,,,,,,,,,,,,,,,,,,,,,,,,,,,,,,hyz1102,001,2021_Nov_02_1458,FigureTest,2021.2.1,60.05241375433173,
,,,,,,,,,,,,,,,,,,,,,,,,,,,,,,,,,,,,,,,,,,,,,,,,,,,,,,,,,,,,,,,,,,,,,,,,,,,,,,,,,,,,,,,1155.5114881000482,None,,,,,,,
