PreCondName,TrgCol,ratingName,CSName,UCSName,SoundName,ExtName,Session_Condition.thisRepN,Session_Condition.thisTrialN,Session_Condition.thisN,Session_Condition.thisIndex,PreCond.thisRepN,PreCond.thisTrialN,PreCond.thisN,PreCond.thisIndex,RatingPreCond.thisRepN,RatingPreCond.thisTrialN,RatingPreCond.thisN,RatingPreCond.thisIndex,Cond.thisRepN,Cond.thisTrialN,Cond.thisN,Cond.thisIndex,RatingCond.thisRepN,RatingCond.thisTrialN,RatingCond.thisN,RatingCond.thisIndex,Session_Extinction.thisRepN,Session_Extinction.thisTrialN,Session_Extinction.thisN,Session_Extinction.thisIndex,Extinction.thisRepN,Extinction.thisTrialN,Extinction.thisN,Extinction.thisIndex,RatingExt.thisRepN,RatingExt.thisTrialN,RatingExt.thisN,RatingExt.thisIndex,InstrBkg.started,InstrBkg.stopped,TagFig.started,TagFig.stopped,InstrKeyResp.keys,InstrKeyResp.rt,InstrKeyResp.started,InstrKeyResp.stopped,precondBkg.started,precondBkg.stopped,imagePreCond.started,imagePreCond.stopped,BlankBkg.started,BlankBkg.stopped,Bkg.started,Bkg.stopped,image.started,image.stopped,Scale.response,Scale.rt,Scale.started,Scale.stopped,InstrBkg2.started,InstrBkg2.stopped,TagFig2.started,TagFig2.stopped,key_resp.keys,key_resp.rt,key_resp.started,key_resp.stopped,CSBkg.started,CSBkg.stopped,CS_image.started,CS_image.stopped,UCSBkg.started,UCSBkg.stopped,UCS_image.started,UCS_image.stopped,sound_1.started,sound_1.stopped,InstrBkg3.started,InstrBkg3.stopped,TagFig3.started,TagFig3.stopped,key_resp_3.keys,key_resp_3.rt,key_resp_3.started,key_resp_3.stopped,ExtBkg.started,ExtBkg.stopped,Ext_image.started,Ext_image.stopped,participant,session,date,expName,psychopyVersion,frameRate,
PreCondition\CS+1.BMP,-0.1,,,,,,0,0,0,0,0,0,0,1,,,,,,,,,,,,,,,,,,,,,,,,,43.36605439998675,None,43.36605439998675,None,space,2.1024505000095814,43.36605439998675,None,45.52476170001319,None,45.52476170001319,None,46.51168500003405,None,,,,,,,,,,,,,,,,,,,,,,,,,,,,,,,,,,,,,,,hyz1102,001,2021_Nov_02_1604,FigureTest,2021.2.1,59.97940306976616,
PreCondition\CS+1.BMP,-0.1,,,,,,0,0,0,0,0,1,1,2,,,,,,,,,,,,,,,,,,,,,,,,,,,,,,,,,46.66289139998844,None,46.66289139998844,47.64494530000957,47.6777393000084,None,,,,,,,,,,,,,,,,,,,,,,,,,,,,,,,,,,,,,,,hyz1102,001,2021_Nov_02_1604,FigureTest,2021.2.1,59.97940306976616,
PreCondition\CS-1.BMP,0.4,,,,,,0,0,0,0,0,2,2,9,,,,,,,,,,,,,,,,,,,,,,,,,,,,,,,,,47.951862399990205,None,47.951862399990205,48.94494690001011,48.96419710002374,None,,,,,,,,,,,,,,,,,,,,,,,,,,,,,,,,,,,,,,,hyz1102,001,2021_Nov_02_1604,FigureTest,2021.2.1,59.97940306976616,
PreCondition\CS-1.BMP,0.4,,,,,,0,0,0,0,0,3,3,5,,,,,,,,,,,,,,,,,,,,,,,,,,,,,,,,,49.04440539999632,None,49.04440539999632,50.02815890003694,50.04457510000793,None,,,,,,,,,,,,,,,,,,,,,,,,,,,,,,,,,,,,,,,hyz1102,001,2021_Nov_02_1604,FigureTest,2021.2.1,59.97940306976616,
PreCondition\CS+1.BMP,-0.1,,,,,,0,0,0,0,0,4,4,3,,,,,,,,,,,,,,,,,,,,,,,,,,,,,,,,,50.27653650002321,None,50.27653650002321,51.263759800000116,51.280380100011826,None,,,,,,,,,,,,,,,,,,,,,,,,,,,,,,,,,,,,,,,hyz1102,001,2021_Nov_02_1604,FigureTest,2021.2.1,59.97940306976616,
PreCondition\CS-1.BMP,0.4,,,,,,0,0,0,0,0,5,5,7,,,,,,,,,,,,,,,,,,,,,,,,,,,,,,,,,51.419532100029755,None,51.419532100029755,52.41085230000317,52.427407199982554,None,,,,,,,,,,,,,,,,,,,,,,,,,,,,,,,,,,,,,,,hyz1102,001,2021_Nov_02_1604,FigureTest,2021.2.1,59.97940306976616,
PreCondition\CS-1.BMP,0.4,,,,,,0,0,0,0,0,6,6,8,,,,,,,,,,,,,,,,,,,,,,,,,,,,,,,,,52.51527309999801,None,52.51527309999801,53.51105820003431,53.527377200021874,None,,,,,,,,,,,,,,,,,,,,,,,,,,,,,,,,,,,,,,,hyz1102,001,2021_Nov_02_1604,FigureTest,2021.2.1,59.97940306976616,
PreCondition\CS+1.BMP,-0.1,,,,,,0,0,0,0,0,7,7,4,,,,,,,,,,,,,,,,,,,,,,,,,,,,,,,,,53.587461600021925,None,53.587461600021925,None,54.578250400023535,None,,,,,,,,,,,,,,,,,,,,,,,,,,,,,,,,,,,,,,,hyz1102,001,2021_Nov_02_1604,FigureTest,2021.2.1,59.97940306976616,
PreCondition\CS+1.BMP,-0.1,,,,,,0,0,0,0,0,8,8,0,,,,,,,,,,,,,,,,,,,,,,,,,,,,,,,,,54.815549099992495,None,54.815549099992495,55.81166870001471,55.828404500032775,None,,,,,,,,,,,,,,,,,,,,,,,,,,,,,,,,,,,,,,,hyz1102,001,2021_Nov_02_1604,FigureTest,2021.2.1,59.97940306976616,
PreCondition\CS-1.BMP,0.4,,,,,,0,0,0,0,0,9,9,6,,,,,,,,,,,,,,,,,,,,,,,,,,,,,,,,,55.971689000027254,None,55.971689000027254,56.96106910001254,56.97687360004056,None,,,,,,,,,,,,,,,,,,,,,,,,,,,,,,,,,,,,,,,hyz1102,001,2021_Nov_02_1604,FigureTest,2021.2.1,59.97940306976616,
,-0.1,Rating\ratingCS+1.png,,,,,0,0,0,0,,,,,0,0,0,0,,,,,,,,,,,,,,,,,,,,,,,,,,,,,,,,,,,61.26821710000513,None,61.26821710000513,None,1.6953124999999998,1.7769013000070117,61.26821710000513,None,,,,,,,,,,,,,,,,,,,,,,,,,,,,,,,hyz1102,001,2021_Nov_02_1604,FigureTest,2021.2.1,59.97940306976616,
,0.4,Rating\ratingCS-1.png,,,,,0,0,0,0,,,,,0,1,1,1,,,,,,,,,,,,,,,,,,,,,,,,,,,,,,,,,,,64.4975253000157,None,64.4975253000157,None,1.5859375000000002,0.8268956000101753,64.4975253000157,None,,,,,,,,,,,,,,,,,,,,,,,,,,,,,,,hyz1102,001,2021_Nov_02_1604,FigureTest,2021.2.1,59.97940306976616,
,-0.1,,Condition\CS+1.BMP,Condition\black.PNG,Sound\silent.wav,,0,0,0,0,,,,,,,,,0,0,0,1,,,,,,,,,,,,,,,,,,,,,,,,,,,,,71.26807140000165,None,,,,,,,,,65.17241980001563,None,65.17241980001563,None,space,1.5368613000027835,65.17241980001563,None,66.77109639998525,None,66.77109639998525,None,None,None,None,None,None,None,,,,,,,,,,,,,hyz1102,001,2021_Nov_02_1604,FigureTest,2021.2.1,59.97940306976616,
,0.4,,Condition\CS-1.BMP,Condition\black.PNG,Sound\silent.wav,,0,0,0,0,,,,,,,,,0,1,1,18,,,,,,,,,,,,,,,,,,,,,,,,,,,,,73.6053852000041,None,,,,,,,,,,,,,,,,,71.54659749998245,None,71.54659749998245,None,73.54106600000523,None,73.54106600000523,None,73.50977826996824,None,,,,,,,,,,,,,hyz1102,001,2021_Nov_02_1604,FigureTest,2021.2.1,59.97940306976616,
,0.9,,Condition\CS+1.BMP,Condition\UCS1.BMP,Sound\scream1.wav,,0,0,0,0,,,,,,,,,0,2,2,13,,,,,,,,,,,,,,,,,,,,,,,,,,,,,76.0284317000187,None,,,,,,,,,,,,,,,,,73.95099859999027,None,73.95099859999027,None,75.06930520001333,None,75.06930520001333,None,75.07720203999197,None,,,,,,,,,,,,,hyz1102,001,2021_Nov_02_1604,FigureTest,2021.2.1,59.97940306976616,
,0.4,,Condition\CS-1.BMP,Condition\black.PNG,Sound\silent.wav,,0,0,0,0,,,,,,,,,0,3,3,21,,,,,,,,,,,,,,,,,,,,,,,,,,,,,80.74196399998618,None,,,,,,,,,,,,,,,,,76.21909480000613,None,76.21909480000613,None,None,None,None,None,None,None,,,,,,,,,,,,,hyz1102,001,2021_Nov_02_1604,FigureTest,2021.2.1,59.97940306976616,
,0.9,,Condition\CS+1.BMP,Condition\UCS1.BMP,Sound\scream1.wav,,0,0,0,0,,,,,,,,,0,4,4,12,,,,,,,,,,,,,,,,,,,,,,,,,,,,,82.79439270001603,None,,,,,,,,,,,,,,,,,80.76597559999209,None,80.76597559999209,None,81.88208940002369,None,81.88208940002369,None,81.89205264002085,None,,,,,,,,,,,,,hyz1102,001,2021_Nov_02_1604,FigureTest,2021.2.1,59.97940306976616,
,0.4,,Condition\CS-1.BMP,Condition\black.PNG,Sound\silent.wav,,0,0,0,0,,,,,,,,,0,5,5,17,,,,,,,,,,,,,,,,,,,,,,,,,,,,,87.4419849999831,None,,,,,,,,,,,,,,,,,82.92932950000977,None,82.92932950000977,None,None,None,None,None,None,None,,,,,,,,,,,,,hyz1102,001,2021_Nov_02_1604,FigureTest,2021.2.1,59.97940306976616,
,0.9,,Condition\CS+1.BMP,Condition\UCS1.BMP,Sound\scream1.wav,,0,0,0,0,,,,,,,,,0,6,6,3,,,,,,,,,,,,,,,,,,,,,,,,,,,,,89.71895940002287,None,,,,,,,,,,,,,,,,,87.68843290000223,None,87.68843290000223,None,88.79703950003022,None,88.79703950003022,None,88.80831664002035,None,,,,,,,,,,,,,hyz1102,001,2021_Nov_02_1604,FigureTest,2021.2.1,59.97940306976616,
,0.9,,Condition\CS+1.BMP,Condition\UCS1.BMP,Sound\scream1.wav,,0,0,0,0,,,,,,,,,0,7,7,8,,,,,,,,,,,,,,,,,,,,,,,,,,,,,91.87324099999387,None,,,,,,,,,,,,,,,,,89.80001100001391,None,89.80001100001391,None,90.80834879999747,None,90.80834879999747,None,90.81677705999465,None,,,,,,,,,,,,,hyz1102,001,2021_Nov_02_1604,FigureTest,2021.2.1,59.97940306976616,
,0.9,,Condition\CS+1.BMP,Condition\UCS1.BMP,Sound\scream1.wav,,0,0,0,0,,,,,,,,,0,8,8,14,,,,,,,,,,,,,,,,,,,,,,,,,,,,,94.28904900001362,None,,,,,,,,,,,,,,,,,92.24961769999936,None,92.24961769999936,None,93.25824170000851,None,93.25824170000851,None,93.26640316001141,None,,,,,,,,,,,,,hyz1102,001,2021_Nov_02_1604,FigureTest,2021.2.1,59.97940306976616,
,0.4,,Condition\CS-1.BMP,Condition\black.PNG,Sound\silent.wav,,0,0,0,0,,,,,,,,,0,9,9,22,,,,,,,,,,,,,,,,,,,,,,,,,,,,,99.10524619999342,None,,,,,,,,,,,,,,,,,94.5629048999981,None,94.5629048999981,None,None,None,None,None,None,None,,,,,,,,,,,,,hyz1102,001,2021_Nov_02_1604,FigureTest,2021.2.1,59.97940306976616,
,0.4,,Condition\CS-1.BMP,Condition\black.PNG,Sound\silent.wav,,0,0,0,0,,,,,,,,,0,10,10,24,,,,,,,,,,,,,,,,,,,,,,,,,,,,,101.44664450001437,None,,,,,,,,,,,,,,,,,99.3422468000208,None,99.3422468000208,None,101.37206690001767,None,101.37206690001767,None,101.30589523997624,None,,,,,,,,,,,,,hyz1102,001,2021_Nov_02_1604,FigureTest,2021.2.1,59.97940306976616,
,0.4,,Condition\CS-1.BMP,Condition\black.PNG,Sound\silent.wav,,0,0,0,0,,,,,,,,,0,11,11,28,,,,,,,,,,,,,,,,,,,,,,,,,,,,,103.7205942000146,None,,,,,,,,,,,,,,,,,101.65109310002299,None,101.65109310002299,None,103.66032100003213,None,103.66032100003213,None,103.62601656995831,None,,,,,,,,,,,,,hyz1102,001,2021_Nov_02_1604,FigureTest,2021.2.1,59.97940306976616,
,0.4,,Condition\CS-1.BMP,Condition\black.PNG,Sound\silent.wav,,0,0,0,0,,,,,,,,,0,12,12,27,,,,,,,,,,,,,,,,,,,,,,,,,,,,,105.875400000019,None,,,,,,,,,,,,,,,,,103.7970455000177,None,103.7970455000177,None,105.82361760002095,None,105.82361760002095,None,105.74605363996234,None,,,,,,,,,,,,,hyz1102,001,2021_Nov_02_1604,FigureTest,2021.2.1,59.97940306976616,
,0.9,,Condition\CS+1.BMP,Condition\UCS1.BMP,Sound\scream1.wav,,0,0,0,0,,,,,,,,,0,13,13,7,,,,,,,,,,,,,,,,,,,,,,,,,,,,,108.10482420003973,None,,,,,,,,,,,,,,,,,106.09272090002196,None,106.09272090002196,None,107.201194400026,None,107.201194400026,None,107.21210534002167,None,,,,,,,,,,,,,hyz1102,001,2021_Nov_02_1604,FigureTest,2021.2.1,59.97940306976616,
,-0.1,,Condition\CS+1.BMP,Condition\black.PNG,Sound\silent.wav,,0,0,0,0,,,,,,,,,0,14,14,0,,,,,,,,,,,,,,,,,,,,,,,,,,,,,112.8668222000124,None,,,,,,,,,,,,,,,,,108.3235893000383,None,108.3235893000383,None,None,None,None,None,None,None,,,,,,,,,,,,,hyz1102,001,2021_Nov_02_1604,FigureTest,2021.2.1,59.97940306976616,
,0.4,,Condition\CS-1.BMP,Condition\black.PNG,Sound\silent.wav,,0,0,0,0,,,,,,,,,0,15,15,26,,,,,,,,,,,,,,,,,,,,,,,,,,,,,115.02825149998534,None,,,,,,,,,,,,,,,,,112.9582038000226,None,112.9582038000226,None,114.98653779999586,None,114.98653779999586,None,114.91565363998525,None,,,,,,,,,,,,,hyz1102,001,2021_Nov_02_1604,FigureTest,2021.2.1,59.97940306976616,
,-0.1,,Condition\CS+1.BMP,Condition\black.PNG,Sound\silent.wav,,0,0,0,0,,,,,,,,,0,16,16,2,,,,,,,,,,,,,,,,,,,,,,,,,,,,,117.28710850002244,None,,,,,,,,,,,,,,,,,115.23570479999762,None,115.23570479999762,None,117.22706860001199,None,117.22706860001199,None,117.17359023994068,None,,,,,,,,,,,,,hyz1102,001,2021_Nov_02_1604,FigureTest,2021.2.1,59.97940306976616,
,0.4,,Condition\CS-1.BMP,Condition\black.PNG,Sound\silent.wav,,0,0,0,0,,,,,,,,,0,17,17,15,,,,,,,,,,,,,,,,,,,,,,,,,,,,,119.45740630000364,None,,,,,,,,,,,,,,,,,117.38710960000753,None,117.38710960000753,None,119.4000980000128,None,119.4000980000128,None,119.36333476995934,None,,,,,,,,,,,,,hyz1102,001,2021_Nov_02_1604,FigureTest,2021.2.1,59.97940306976616,
,0.4,,Condition\CS-1.BMP,Condition\black.PNG,Sound\silent.wav,,0,0,0,0,,,,,,,,,0,18,18,19,,,,,,,,,,,,,,,,,,,,,,,,,,,,,121.64073199999984,None,,,,,,,,,,,,,,,,,119.60255190002499,None,119.60255190002499,None,121.58010610000929,None,121.58010610000929,None,121.55212613997283,None,,,,,,,,,,,,,hyz1102,001,2021_Nov_02_1604,FigureTest,2021.2.1,59.97940306976616,
,0.4,,Condition\CS-1.BMP,Condition\black.PNG,Sound\silent.wav,,0,0,0,0,,,,,,,,,0,19,19,23,,,,,,,,,,,,,,,,,,,,,,,,,,,,,123.94548160000704,None,,,,,,,,,,,,,,,,,121.86894770001527,None,121.86894770001527,None,123.90459029999329,None,123.90459029999329,None,123.83218663993758,None,,,,,,,,,,,,,hyz1102,001,2021_Nov_02_1604,FigureTest,2021.2.1,59.97940306976616,
,0.9,,Condition\CS+1.BMP,Condition\UCS1.BMP,Sound\scream1.wav,,0,0,0,0,,,,,,,,,0,20,20,11,,,,,,,,,,,,,,,,,,,,,,,,,,,,,126.22316679998767,None,,,,,,,,,,,,,,,,,124.15869569999631,None,124.15869569999631,None,125.26691360003315,None,125.26691360003315,None,125.27690863998141,None,,,,,,,,,,,,,hyz1102,001,2021_Nov_02_1604,FigureTest,2021.2.1,59.97940306976616,
,0.4,,Condition\CS-1.BMP,Condition\black.PNG,Sound\silent.wav,,0,0,0,0,,,,,,,,,0,21,21,25,,,,,,,,,,,,,,,,,,,,,,,,,,,,,130.83081800001673,None,,,,,,,,,,,,,,,,,126.33006170002045,None,126.33006170002045,None,None,None,None,None,None,None,,,,,,,,,,,,,hyz1102,001,2021_Nov_02_1604,FigureTest,2021.2.1,59.97940306976616,
,0.9,,Condition\CS+1.BMP,Condition\UCS1.BMP,Sound\scream1.wav,,0,0,0,0,,,,,,,,,0,22,22,6,,,,,,,,,,,,,,,,,,,,,,,,,,,,,133.02249980001943,None,,,,,,,,,,,,,,,,,131.02609709999524,None,131.02609709999524,None,132.13411480002105,None,132.13411480002105,None,132.1448066399782,None,,,,,,,,,,,,,hyz1102,001,2021_Nov_02_1604,FigureTest,2021.2.1,59.97940306976616,
,0.4,,Condition\CS-1.BMP,Condition\black.PNG,Sound\silent.wav,,0,0,0,0,,,,,,,,,0,23,23,16,,,,,,,,,,,,,,,,,,,,,,,,,,,,,137.81983689998742,None,,,,,,,,,,,,,,,,,133.29329900001176,None,133.29329900001176,None,None,None,None,None,None,None,,,,,,,,,,,,,hyz1102,001,2021_Nov_02_1604,FigureTest,2021.2.1,59.97940306976616,
,0.4,,Condition\CS-1.BMP,Condition\black.PNG,Sound\silent.wav,,0,0,0,0,,,,,,,,,0,24,24,29,,,,,,,,,,,,,,,,,,,,,,,,,,,,,140.03326950001065,None,,,,,,,,,,,,,,,,,137.94880439998815,None,137.94880439998815,None,139.96291410003323,None,139.96291410003323,None,139.8978588399943,None,,,,,,,,,,,,,hyz1102,001,2021_Nov_02_1604,FigureTest,2021.2.1,59.97940306976616,
,0.9,,Condition\CS+1.BMP,Condition\UCS1.BMP,Sound\scream1.wav,,0,0,0,0,,,,,,,,,0,25,25,9,,,,,,,,,,,,,,,,,,,,,,,,,,,,,142.21013720001793,None,,,,,,,,,,,,,,,,,140.18412190000527,None,140.18412190000527,None,141.29111920000287,None,141.29111920000287,None,141.30185104003178,None,,,,,,,,,,,,,hyz1102,001,2021_Nov_02_1604,FigureTest,2021.2.1,59.97940306976616,
,0.9,,Condition\CS+1.BMP,Condition\UCS1.BMP,Sound\scream1.wav,,0,0,0,0,,,,,,,,,0,26,26,10,,,,,,,,,,,,,,,,,,,,,,,,,,,,,144.45743120001862,None,,,,,,,,,,,,,,,,,142.4110340999905,None,142.4110340999905,None,143.41830750001827,None,143.41830750001827,None,143.42714306003182,None,,,,,,,,,,,,,hyz1102,001,2021_Nov_02_1604,FigureTest,2021.2.1,59.97940306976616,
,0.9,,Condition\CS+1.BMP,Condition\UCS1.BMP,Sound\scream1.wav,,0,0,0,0,,,,,,,,,0,27,27,4,,,,,,,,,,,,,,,,,,,,,,,,,,,,,146.79375770001207,None,,,,,,,,,,,,,,,,,144.75360370002454,None,144.75360370002454,None,145.76721120002912,None,145.76721120002912,None,145.7772021599929,None,,,,,,,,,,,,,hyz1102,001,2021_Nov_02_1604,FigureTest,2021.2.1,59.97940306976616,
,0.4,,Condition\CS-1.BMP,Condition\black.PNG,Sound\silent.wav,,0,0,0,0,,,,,,,,,0,28,28,20,,,,,,,,,,,,,,,,,,,,,,,,,,,,,151.48595440003555,None,,,,,,,,,,,,,,,,,146.9343373000156,None,146.9343373000156,None,None,None,None,None,None,None,,,,,,,,,,,,,hyz1102,001,2021_Nov_02_1604,FigureTest,2021.2.1,59.97940306976616,
,0.9,,Condition\CS+1.BMP,Condition\UCS1.BMP,Sound\scream1.wav,,0,0,0,0,,,,,,,,,0,29,29,5,,,,,,,,,,,,,,,,,,,,,,,,,,,,,153.796377199993,None,,,,,,,,,,,,,,,,,151.7921945999842,None,151.7921945999842,None,152.9095876000356,None,152.9095876000356,None,152.91915523998907,None,,,,,,,,,,,,,hyz1102,001,2021_Nov_02_1604,FigureTest,2021.2.1,59.97940306976616,
,-0.1,Rating\ratingCS+1.png,,,,,0,0,0,0,,,,,,,,,,,,,0,0,0,0,,,,,,,,,,,,,,,,,,,,,,,,,,,155.4457005999866,None,155.4457005999866,None,2.75,2.9596317000105046,155.4457005999866,None,,,,,,,,,,,,,,,,,,,,,,,,,,,,,,,hyz1102,001,2021_Nov_02_1604,FigureTest,2021.2.1,59.97940306976616,
,0.4,Rating\ratingCS-1.png,,,,,0,0,0,0,,,,,,,,,,,,,0,1,1,1,,,,,,,,,,,,,,,,,,,,,,,,,,,159.9962350000278,None,159.9962350000278,None,1.9062499999999998,2.6798602999770083,159.9962350000278,None,,,,,,,,,,,,,,,,,,,,,,,,,,,,,,,hyz1102,001,2021_Nov_02_1604,FigureTest,2021.2.1,59.97940306976616,
,,,,,,,0,0,0,0,,,,,,,,,,,,,,,,,,,,,,,,,,,,,,,,,,,,,,,,,,,,,,,,,,,,,,,,,,,,,,,,,,,,,,,,,,,,,,,,,hyz1102,001,2021_Nov_02_1604,FigureTest,2021.2.1,59.97940306976616,
PreCondition\CS-2.BMP,0.4,,,,,,1,0,1,0,0,0,0,5,,,,,,,,,,,,,,,,,,,,,,,,,162.5279497000156,None,162.5279497000156,None,space,1.9156696000136435,162.5279497000156,None,164.47694190003676,None,164.47694190003676,None,165.47830820002127,None,,,,,,,,,,,,,,,,,,,,,,,,,,,,,,,,,,,,,,,hyz1102,001,2021_Nov_02_1604,FigureTest,2021.2.1,59.97940306976616,
PreCondition\CS-2.BMP,0.4,,,,,,1,0,1,0,0,1,1,9,,,,,,,,,,,,,,,,,,,,,,,,,,,,,,,,,165.69487459998345,None,165.69487459998345,166.67858589999378,166.69527399999788,None,,,,,,,,,,,,,,,,,,,,,,,,,,,,,,,,,,,,,,,hyz1102,001,2021_Nov_02_1604,FigureTest,2021.2.1,59.97940306976616,
PreCondition\CS+2.BMP,-0.1,,,,,,1,0,1,0,0,2,2,1,,,,,,,,,,,,,,,,,,,,,,,,,,,,,,,,,166.74520470004063,None,166.74520470004063,167.72972110001137,167.74528490001103,None,,,,,,,,,,,,,,,,,,,,,,,,,,,,,,,,,,,,,,,hyz1102,001,2021_Nov_02_1604,FigureTest,2021.2.1,59.97940306976616,
PreCondition\CS-2.BMP,0.4,,,,,,1,0,1,0,0,3,3,8,,,,,,,,,,,,,,,,,,,,,,,,,,,,,,,,,167.89515240001492,None,167.89515240001492,168.8786092000082,168.89533080003457,None,,,,,,,,,,,,,,,,,,,,,,,,,,,,,,,,,,,,,,,hyz1102,001,2021_Nov_02_1604,FigureTest,2021.2.1,59.97940306976616,
PreCondition\CS+2.BMP,-0.1,,,,,,1,0,1,0,0,4,4,2,,,,,,,,,,,,,,,,,,,,,,,,,,,,,,,,,169.07820920000086,None,169.07820920000086,170.0619320999831,170.07820930000162,None,,,,,,,,,,,,,,,,,,,,,,,,,,,,,,,,,,,,,,,hyz1102,001,2021_Nov_02_1604,FigureTest,2021.2.1,59.97940306976616,
PreCondition\CS-2.BMP,0.4,,,,,,1,0,1,0,0,5,5,7,,,,,,,,,,,,,,,,,,,,,,,,,,,,,,,,,170.2611410000245,None,170.2611410000245,171.2442938000313,171.26087390002795,None,,,,,,,,,,,,,,,,,,,,,,,,,,,,,,,,,,,,,,,hyz1102,001,2021_Nov_02_1604,FigureTest,2021.2.1,59.97940306976616,
PreCondition\CS-2.BMP,0.4,,,,,,1,0,1,0,0,6,6,6,,,,,,,,,,,,,,,,,,,,,,,,,,,,,,,,,171.37763679999625,None,171.37763679999625,None,172.37762390001444,None,,,,,,,,,,,,,,,,,,,,,,,,,,,,,,,,,,,,,,,hyz1102,001,2021_Nov_02_1604,FigureTest,2021.2.1,59.97940306976616,
PreCondition\CS+2.BMP,-0.1,,,,,,1,0,1,0,0,7,7,0,,,,,,,,,,,,,,,,,,,,,,,,,,,,,,,,,172.52007790002972,None,172.52007790002972,173.51223160000518,173.52893070003483,None,,,,,,,,,,,,,,,,,,,,,,,,,,,,,,,,,,,,,,,hyz1102,001,2021_Nov_02_1604,FigureTest,2021.2.1,59.97940306976616,
PreCondition\CS+2.BMP,-0.1,,,,,,1,0,1,0,0,8,8,4,,,,,,,,,,,,,,,,,,,,,,,,,,,,,,,,,173.596909600019,None,173.596909600019,174.5954571000184,174.61212230002275,None,,,,,,,,,,,,,,,,,,,,,,,,,,,,,,,,,,,,,,,hyz1102,001,2021_Nov_02_1604,FigureTest,2021.2.1,59.97940306976616,
PreCondition\CS+2.BMP,-0.1,,,,,,1,0,1,0,0,9,9,3,,,,,,,,,,,,,,,,,,,,,,,,,,,,,,,,,174.82776060001925,None,174.82776060001925,175.81359109998448,175.8289350999985,None,,,,,,,,,,,,,,,,,,,,,,,,,,,,,,,,,,,,,,,hyz1102,001,2021_Nov_02_1604,FigureTest,2021.2.1,59.97940306976616,
,-0.1,Rating\ratingCS+2.png,,,,,1,0,1,0,,,,,0,0,0,0,,,,,,,,,,,,,,,,,,,,,,,,,,,,,,,,,,,177.46836030000122,None,177.46836030000122,None,1.5781249999999996,5.189111099985894,177.46836030000122,None,,,,,,,,,,,,,,,,,,,,,,,,,,,,,,,hyz1102,001,2021_Nov_02_1604,FigureTest,2021.2.1,59.97940306976616,
,0.4,Rating\ratingCS-2.png,,,,,1,0,1,0,,,,,0,1,1,1,,,,,,,,,,,,,,,,,,,,,,,,,,,,,,,,,,,184.3704657999915,None,184.3704657999915,None,1.6093749999999993,1.2886266999994405,184.3704657999915,None,,,,,,,,,,,,,,,,,,,,,,,,,,,,,,,hyz1102,001,2021_Nov_02_1604,FigureTest,2021.2.1,59.97940306976616,
,0.9,,Condition\CS+2.BMP,Condition\UCS2.BMP,Sound\scream1.wav,,1,0,1,0,,,,,,,,,0,0,0,8,,,,,,,,,,,,,,,,,,,,,,,,,,,,,194.3739831999992,None,,,,,,,,,185.35375050001312,None,185.35375050001312,None,space,6.922045699961018,185.35375050001312,None,192.31183050002437,None,192.31183050002437,None,193.32213270000648,None,193.32213270000648,None,193.3317328600213,None,,,,,,,,,,,,,hyz1102,001,2021_Nov_02_1604,FigureTest,2021.2.1,59.97940306976616,
,-0.1,,Condition\CS+2.BMP,Condition\black.PNG,Sound\silent.wav,,1,0,1,0,,,,,,,,,0,1,1,1,,,,,,,,,,,,,,,,,,,,,,,,,,,,,199.0557123000035,None,,,,,,,,,,,,,,,,,194.4814298999845,None,194.4814298999845,None,None,None,None,None,None,None,,,,,,,,,,,,,hyz1102,001,2021_Nov_02_1604,FigureTest,2021.2.1,59.97940306976616,
,0.9,,Condition\CS+2.BMP,Condition\UCS2.BMP,Sound\scream1.wav,,1,0,1,0,,,,,,,,,0,2,2,12,,,,,,,,,,,,,,,,,,,,,,,,,,,,,201.28746000002138,None,,,,,,,,,,,,,,,,,199.28149470000062,None,199.28149470000062,None,200.4005487000104,None,200.4005487000104,None,200.4063536400092,None,,,,,,,,,,,,,hyz1102,001,2021_Nov_02_1604,FigureTest,2021.2.1,59.97940306976616,
,0.4,,Condition\CS-2.BMP,Condition\black.PNG,Sound\silent.wav,,1,0,1,0,,,,,,,,,0,3,3,27,,,,,,,,,,,,,,,,,,,,,,,,,,,,,205.98400080000283,None,,,,,,,,,,,,,,,,,201.44425589998718,None,201.44425589998718,None,None,None,None,None,None,None,,,,,,,,,,,,,hyz1102,001,2021_Nov_02_1604,FigureTest,2021.2.1,59.97940306976616,
,0.4,,Condition\CS-2.BMP,Condition\black.PNG,Sound\silent.wav,,1,0,1,0,,,,,,,,,0,4,4,16,,,,,,,,,,,,,,,,,,,,,,,,,,,,,208.22056330001215,None,,,,,,,,,,,,,,,,,206.16176390001783,None,206.16176390001783,None,208.17010280000977,None,208.17010280000977,None,208.09445890997887,None,,,,,,,,,,,,,hyz1102,001,2021_Nov_02_1604,FigureTest,2021.2.1,59.97940306976616,
,0.9,,Condition\CS+2.BMP,Condition\UCS2.BMP,Sound\scream1.wav,,1,0,1,0,,,,,,,,,0,5,5,4,,,,,,,,,,,,,,,,,,,,,,,,,,,,,210.5185944000259,None,,,,,,,,,,,,,,,,,208.44348970003193,None,208.44348970003193,None,209.55877970001893,None,209.55877970001893,None,209.5594244400156,None,,,,,,,,,,,,,hyz1102,001,2021_Nov_02_1604,FigureTest,2021.2.1,59.97940306976616,
,0.9,,Condition\CS+2.BMP,Condition\UCS2.BMP,Sound\scream1.wav,,1,0,1,0,,,,,,,,,0,6,6,11,,,,,,,,,,,,,,,,,,,,,,,,,,,,,212.79014130000724,None,,,,,,,,,,,,,,,,,210.72855320002418,None,210.72855320002418,None,211.73788369999966,None,211.73788369999966,None,211.74562245998533,None,,,,,,,,,,,,,hyz1102,001,2021_Nov_02_1604,FigureTest,2021.2.1,59.97940306976616,
,0.9,,Condition\CS+2.BMP,Condition\UCS2.BMP,Sound\scream1.wav,,1,0,1,0,,,,,,,,,0,7,7,5,,,,,,,,,,,,,,,,,,,,,,,,,,,,,214.877197600028,None,,,,,,,,,,,,,,,,,212.82841250003548,None,212.82841250003548,None,213.85157840000466,None,213.85157840000466,None,213.84560325999047,None,,,,,,,,,,,,,hyz1102,001,2021_Nov_02_1604,FigureTest,2021.2.1,59.97940306976616,
,0.4,,Condition\CS-2.BMP,Condition\black.PNG,Sound\silent.wav,,1,0,1,0,,,,,,,,,0,8,8,26,,,,,,,,,,,,,,,,,,,,,,,,,,,,,219.51052609999897,None,,,,,,,,,,,,,,,,,215.01126810000278,None,215.01126810000278,None,None,None,None,None,None,None,,,,,,,,,,,,,hyz1102,001,2021_Nov_02_1604,FigureTest,2021.2.1,59.97940306976616,
,0.4,,Condition\CS-2.BMP,Condition\black.PNG,Sound\silent.wav,,1,0,1,0,,,,,,,,,0,9,9,21,,,,,,,,,,,,,,,,,,,,,,,,,,,,,221.81530090002343,None,,,,,,,,,,,,,,,,,219.77361179998843,None,219.77361179998843,None,221.79330210003536,None,221.79330210003536,None,221.72499443996932,None,,,,,,,,,,,,,hyz1102,001,2021_Nov_02_1604,FigureTest,2021.2.1,59.97940306976616,
,0.9,,Condition\CS+2.BMP,Condition\UCS2.BMP,Sound\scream1.wav,,1,0,1,0,,,,,,,,,0,10,10,9,,,,,,,,,,,,,,,,,,,,,,,,,,,,,224.02636080002412,None,,,,,,,,,,,,,,,,,222.03017089999048,None,222.03017089999048,None,223.13461599999573,None,223.13461599999573,None,223.13079320998514,None,,,,,,,,,,,,,hyz1102,001,2021_Nov_02_1604,FigureTest,2021.2.1,59.97940306976616,
,-0.1,,Condition\CS+2.BMP,Condition\black.PNG,Sound\silent.wav,,1,0,1,0,,,,,,,,,0,11,11,0,,,,,,,,,,,,,,,,,,,,,,,,,,,,,228.61846710002283,None,,,,,,,,,,,,,,,,,224.08738420001464,None,224.08738420001464,None,None,None,None,None,None,None,,,,,,,,,,,,,hyz1102,001,2021_Nov_02_1604,FigureTest,2021.2.1,59.97940306976616,
,0.4,,Condition\CS-2.BMP,Condition\black.PNG,Sound\silent.wav,,1,0,1,0,,,,,,,,,0,12,12,15,,,,,,,,,,,,,,,,,,,,,,,,,,,,,230.72559270000784,None,,,,,,,,,,,,,,,,,228.7019957000157,None,228.7019957000157,None,230.67375459999312,None,230.67375459999312,None,230.6339645099768,None,,,,,,,,,,,,,hyz1102,001,2021_Nov_02_1604,FigureTest,2021.2.1,59.97940306976616,
,0.9,,Condition\CS+2.BMP,Condition\UCS2.BMP,Sound\scream1.wav,,1,0,1,0,,,,,,,,,0,13,13,13,,,,,,,,,,,,,,,,,,,,,,,,,,,,,232.87271510000573,None,,,,,,,,,,,,,,,,,230.86020850000205,None,230.86020850000205,None,231.99071139999432,None,231.99071139999432,None,231.99342387000215,None,,,,,,,,,,,,,hyz1102,001,2021_Nov_02_1604,FigureTest,2021.2.1,59.97940306976616,
,0.4,,Condition\CS-2.BMP,Condition\black.PNG,Sound\silent.wav,,1,0,1,0,,,,,,,,,0,14,14,22,,,,,,,,,,,,,,,,,,,,,,,,,,,,,237.65181579999626,None,,,,,,,,,,,,,,,,,233.12703790003434,None,233.12703790003434,None,None,None,None,None,None,None,,,,,,,,,,,,,hyz1102,001,2021_Nov_02_1604,FigureTest,2021.2.1,59.97940306976616,
,0.4,,Condition\CS-2.BMP,Condition\black.PNG,Sound\silent.wav,,1,0,1,0,,,,,,,,,0,15,15,17,,,,,,,,,,,,,,,,,,,,,,,,,,,,,239.96303650003392,None,,,,,,,,,,,,,,,,,237.8581825000001,None,237.8581825000001,None,239.87149990000762,None,239.87149990000762,None,239.81786363995636,None,,,,,,,,,,,,,hyz1102,001,2021_Nov_02_1604,FigureTest,2021.2.1,59.97940306976616,
,0.4,,Condition\CS-2.BMP,Condition\black.PNG,Sound\silent.wav,,1,0,1,0,,,,,,,,,0,16,16,29,,,,,,,,,,,,,,,,,,,,,,,,,,,,,242.0983520000009,None,,,,,,,,,,,,,,,,,240.04508559999522,None,240.04508559999522,None,242.05871170002501,None,242.05871170002501,None,241.99086590994267,None,,,,,,,,,,,,,hyz1102,001,2021_Nov_02_1604,FigureTest,2021.2.1,59.97940306976616,
,0.9,,Condition\CS+2.BMP,Condition\UCS2.BMP,Sound\scream1.wav,,1,0,1,0,,,,,,,,,0,17,17,14,,,,,,,,,,,,,,,,,,,,,,,,,,,,,244.21827409998514,None,,,,,,,,,,,,,,,,,242.16184000001522,None,242.16184000001522,None,243.2817975000362,None,243.2817975000362,None,243.2783648400102,None,,,,,,,,,,,,,hyz1102,001,2021_Nov_02_1604,FigureTest,2021.2.1,59.97940306976616,
,0.9,,Condition\CS+2.BMP,Condition\UCS2.BMP,Sound\scream1.wav,,1,0,1,0,,,,,,,,,0,18,18,6,,,,,,,,,,,,,,,,,,,,,,,,,,,,,246.54752150003333,None,,,,,,,,,,,,,,,,,244.45148590003373,None,244.45148590003373,None,245.46061790001113,None,245.46061790001113,None,245.46834226000357,None,,,,,,,,,,,,,hyz1102,001,2021_Nov_02_1604,FigureTest,2021.2.1,59.97940306976616,
,0.4,,Condition\CS-2.BMP,Condition\black.PNG,Sound\silent.wav,,1,0,1,0,,,,,,,,,0,19,19,19,,,,,,,,,,,,,,,,,,,,,,,,,,,,,251.11218679999,None,,,,,,,,,,,,,,,,,246.62621100002434,None,246.62621100002434,None,None,None,None,None,None,None,,,,,,,,,,,,,hyz1102,001,2021_Nov_02_1604,FigureTest,2021.2.1,59.97940306976616,
,0.9,,Condition\CS+2.BMP,Condition\UCS2.BMP,Sound\scream1.wav,,1,0,1,0,,,,,,,,,0,20,20,10,,,,,,,,,,,,,,,,,,,,,,,,,,,,,253.4417747000116,None,,,,,,,,,,,,,,,,,251.37897970003542,None,251.37897970003542,None,252.4859530000249,None,252.4859530000249,None,252.49576474003263,None,,,,,,,,,,,,,hyz1102,001,2021_Nov_02_1604,FigureTest,2021.2.1,59.97940306976616,
,-0.1,,Condition\CS+2.BMP,Condition\black.PNG,Sound\silent.wav,,1,0,1,0,,,,,,,,,0,21,21,2,,,,,,,,,,,,,,,,,,,,,,,,,,,,,258.08707010000944,None,,,,,,,,,,,,,,,,,253.57269090000773,None,253.57269090000773,None,None,None,None,None,None,None,,,,,,,,,,,,,hyz1102,001,2021_Nov_02_1604,FigureTest,2021.2.1,59.97940306976616,
,0.4,,Condition\CS-2.BMP,Condition\black.PNG,Sound\silent.wav,,1,0,1,0,,,,,,,,,0,22,22,20,,,,,,,,,,,,,,,,,,,,,,,,,,,,,260.3029830000014,None,,,,,,,,,,,,,,,,,258.23742160003167,None,258.23742160003167,None,260.2454617000185,None,260.2454617000185,None,260.1869060399942,None,,,,,,,,,,,,,hyz1102,001,2021_Nov_02_1604,FigureTest,2021.2.1,59.97940306976616,
,0.4,,Condition\CS-2.BMP,Condition\black.PNG,Sound\silent.wav,,1,0,1,0,,,,,,,,,0,23,23,23,,,,,,,,,,,,,,,,,,,,,,,,,,,,,262.3711554000038,None,,,,,,,,,,,,,,,,,260.3504939000122,None,260.3504939000122,None,262.3103581999894,None,262.3103581999894,None,262.26692897998726,None,,,,,,,,,,,,,hyz1102,001,2021_Nov_02_1604,FigureTest,2021.2.1,59.97940306976616,
,0.4,,Condition\CS-2.BMP,Condition\black.PNG,Sound\silent.wav,,1,0,1,0,,,,,,,,,0,24,24,25,,,,,,,,,,,,,,,,,,,,,,,,,,,,,264.52485570003046,None,,,,,,,,,,,,,,,,,262.52181320003,None,262.52181320003,None,264.4873954000068,None,264.4873954000068,None,264.4645745099813,None,,,,,,,,,,,,,hyz1102,001,2021_Nov_02_1604,FigureTest,2021.2.1,59.97940306976616,
,0.4,,Condition\CS-2.BMP,Condition\black.PNG,Sound\silent.wav,,1,0,1,0,,,,,,,,,0,25,25,24,,,,,,,,,,,,,,,,,,,,,,,,,,,,,266.7117567000096,None,,,,,,,,,,,,,,,,,264.6981029000017,None,264.6981029000017,None,266.6630698000081,None,266.6630698000081,None,266.6407529099786,None,,,,,,,,,,,,,hyz1102,001,2021_Nov_02_1604,FigureTest,2021.2.1,59.97940306976616,
,0.9,,Condition\CS+2.BMP,Condition\UCS2.BMP,Sound\scream1.wav,,1,0,1,0,,,,,,,,,0,26,26,7,,,,,,,,,,,,,,,,,,,,,,,,,,,,,268.86363740003435,None,,,,,,,,,,,,,,,,,266.8417158999946,None,266.8417158999946,None,267.97214000002714,None,267.97214000002714,None,267.9832502700097,None,,,,,,,,,,,,,hyz1102,001,2021_Nov_02_1604,FigureTest,2021.2.1,59.97940306976616,
,0.4,,Condition\CS-2.BMP,Condition\black.PNG,Sound\silent.wav,,1,0,1,0,,,,,,,,,0,27,27,18,,,,,,,,,,,,,,,,,,,,,,,,,,,,,273.6832493999973,None,,,,,,,,,,,,,,,,,269.14180730003864,None,269.14180730003864,None,None,None,None,None,None,None,,,,,,,,,,,,,hyz1102,001,2021_Nov_02_1604,FigureTest,2021.2.1,59.97940306976616,
,0.9,,Condition\CS+2.BMP,Condition\UCS2.BMP,Sound\scream1.wav,,1,0,1,0,,,,,,,,,0,28,28,3,,,,,,,,,,,,,,,,,,,,,,,,,,,,,275.7971782000386,None,,,,,,,,,,,,,,,,,273.75182100001257,None,273.75182100001257,None,274.86744579998776,None,274.86744579998776,None,274.8635913100268,None,,,,,,,,,,,,,hyz1102,001,2021_Nov_02_1604,FigureTest,2021.2.1,59.97940306976616,
,0.4,,Condition\CS-2.BMP,Condition\black.PNG,Sound\silent.wav,,1,0,1,0,,,,,,,,,0,29,29,28,,,,,,,,,,,,,,,,,,,,,,,,,,,,,280.4406906000222,None,,,,,,,,,,,,,,,,,275.95703480002703,None,275.95703480002703,None,None,None,None,None,None,None,,,,,,,,,,,,,hyz1102,001,2021_Nov_02_1604,FigureTest,2021.2.1,59.97940306976616,
,-0.1,Rating\ratingCS+2.png,,,,,1,0,1,0,,,,,,,,,,,,,0,0,0,0,,,,,,,,,,,,,,,,,,,,,,,,,,,282.0461774999858,None,282.0461774999858,None,3.5625,41.62129260000074,282.0461774999858,None,,,,,,,,,,,,,,,,,,,,,,,,,,,,,,,hyz1102,001,2021_Nov_02_1604,FigureTest,2021.2.1,59.97940306976616,
,0.4,Rating\ratingCS-2.png,,,,,1,0,1,0,,,,,,,,,,,,,0,1,1,1,,,,,,,,,,,,,,,,,,,,,,,,,,,325.2347855999833,None,325.2347855999833,None,2.1015625,0.7149596000090241,325.2347855999833,None,,,,,,,,,,,,,,,,,,,,,,,,,,,,,,,hyz1102,001,2021_Nov_02_1604,FigureTest,2021.2.1,59.97940306976616,
,,,,,,,1,0,1,0,,,,,,,,,,,,,,,,,,,,,,,,,,,,,,,,,,,,,,,,,,,,,,,,,,,,,,,,,,,,,,,,,,,,,,,,,,,,,,,,,hyz1102,001,2021_Nov_02_1604,FigureTest,2021.2.1,59.97940306976616,
PreCondition\CS+3.BMP,-0.1,,,,,,2,0,2,0,0,0,0,1,,,,,,,,,,,,,,,,,,,,,,,,,325.8006337999832,None,325.8006337999832,None,space,2.0906962000299245,325.8006337999832,None,327.9248024999979,None,327.9248024999979,328.9209593000123,328.93795470002806,None,,,,,,,,,,,,,,,,,,,,,,,,,,,,,,,,,,,,,,,hyz1102,001,2021_Nov_02_1604,FigureTest,2021.2.1,59.97940306976616,
PreCondition\CS-3.BMP,0.4,,,,,,2,0,2,0,0,1,1,7,,,,,,,,,,,,,,,,,,,,,,,,,,,,,,,,,329.1210334000061,None,329.1210334000061,330.1043299000012,330.12101080000866,None,,,,,,,,,,,,,,,,,,,,,,,,,,,,,,,,,,,,,,,hyz1102,001,2021_Nov_02_1604,FigureTest,2021.2.1,59.97940306976616,
PreCondition\CS+3.BMP,-0.1,,,,,,2,0,2,0,0,2,2,2,,,,,,,,,,,,,,,,,,,,,,,,,,,,,,,,,330.22067380003864,None,330.22067380003864,331.2041181999957,331.2208028000314,None,,,,,,,,,,,,,,,,,,,,,,,,,,,,,,,,,,,,,,,hyz1102,001,2021_Nov_02_1604,FigureTest,2021.2.1,59.97940306976616,
PreCondition\CS-3.BMP,0.4,,,,,,2,0,2,0,0,3,3,6,,,,,,,,,,,,,,,,,,,,,,,,,,,,,,,,,331.4540968000074,None,331.4540968000074,332.4375131999841,332.4540517000132,None,,,,,,,,,,,,,,,,,,,,,,,,,,,,,,,,,,,,,,,hyz1102,001,2021_Nov_02_1604,FigureTest,2021.2.1,59.97940306976616,
PreCondition\CS-3.BMP,0.4,,,,,,2,0,2,0,0,4,4,9,,,,,,,,,,,,,,,,,,,,,,,,,,,,,,,,,332.5041964999982,None,332.5041964999982,333.4872368000215,333.50386970001273,None,,,,,,,,,,,,,,,,,,,,,,,,,,,,,,,,,,,,,,,hyz1102,001,2021_Nov_02_1604,FigureTest,2021.2.1,59.97940306976616,
PreCondition\CS+3.BMP,-0.1,,,,,,2,0,2,0,0,5,5,0,,,,,,,,,,,,,,,,,,,,,,,,,,,,,,,,,333.6872638000059,None,333.6872638000059,334.6701791000087,334.6866344999871,None,,,,,,,,,,,,,,,,,,,,,,,,,,,,,,,,,,,,,,,hyz1102,001,2021_Nov_02_1604,FigureTest,2021.2.1,59.97940306976616,
PreCondition\CS-3.BMP,0.4,,,,,,2,0,2,0,0,6,6,8,,,,,,,,,,,,,,,,,,,,,,,,,,,,,,,,,334.85402830003295,None,334.85402830003295,335.83700980001595,335.85361819999525,None,,,,,,,,,,,,,,,,,,,,,,,,,,,,,,,,,,,,,,,hyz1102,001,2021_Nov_02_1604,FigureTest,2021.2.1,59.97940306976616,
PreCondition\CS+3.BMP,-0.1,,,,,,2,0,2,0,0,7,7,4,,,,,,,,,,,,,,,,,,,,,,,,,,,,,,,,,335.98890180001035,None,335.98890180001035,336.9874337000074,337.00316590000875,None,,,,,,,,,,,,,,,,,,,,,,,,,,,,,,,,,,,,,,,hyz1102,001,2021_Nov_02_1604,FigureTest,2021.2.1,59.97940306976616,
PreCondition\CS-3.BMP,0.4,,,,,,2,0,2,0,0,8,8,5,,,,,,,,,,,,,,,,,,,,,,,,,,,,,,,,,337.10467279999284,None,337.10467279999284,338.10301770002116,338.1203566000331,None,,,,,,,,,,,,,,,,,,,,,,,,,,,,,,,,,,,,,,,hyz1102,001,2021_Nov_02_1604,FigureTest,2021.2.1,59.97940306976616,
PreCondition\CS+3.BMP,-0.1,,,,,,2,0,2,0,0,9,9,3,,,,,,,,,,,,,,,,,,,,,,,,,,,,,,,,,338.2197521000053,None,338.2197521000053,339.20305630000075,339.21982260001823,None,,,,,,,,,,,,,,,,,,,,,,,,,,,,,,,,,,,,,,,hyz1102,001,2021_Nov_02_1604,FigureTest,2021.2.1,59.97940306976616,
,-0.1,Rating\ratingCS+3.png,,,,,2,0,2,0,,,,,0,0,0,0,,,,,,,,,,,,,,,,,,,,,,,,,,,,,,,,,,,341.0349637999898,None,341.0349637999898,None,1.734375,4.93300449999515,341.0349637999898,None,,,,,,,,,,,,,,,,,,,,,,,,,,,,,,,hyz1102,001,2021_Nov_02_1604,FigureTest,2021.2.1,59.97940306976616,
,0.4,Rating\ratingCS-3.png,,,,,2,0,2,0,,,,,0,1,1,1,,,,,,,,,,,,,,,,,,,,,,,,,,,,,,,,,,,347.3490395999979,None,347.3490395999979,None,1.7109374999999998,0.8399398000328802,347.3490395999979,None,,,,,,,,,,,,,,,,,,,,,,,,,,,,,,,hyz1102,001,2021_Nov_02_1604,FigureTest,2021.2.1,59.97940306976616,
,0.9,,Condition\CS+3.BMP,Condition\UCS3.BMP,Sound\scream1.wav,,2,0,2,0,,,,,,,,,0,0,0,4,,,,,,,,,,,,,,,,,,,,,,,,,,,,,352.29291090002516,None,,,,,,,,,348.1768737999955,None,348.1768737999955,None,space,2.05085689999396,348.1768737999955,None,350.2589366000029,None,350.2589366000029,None,351.3807960000122,None,351.3807960000122,None,351.38670734000624,None,,,,,,,,,,,,,hyz1102,001,2021_Nov_02_1604,FigureTest,2021.2.1,59.97940306976616,
,0.9,,Condition\CS+3.BMP,Condition\UCS3.BMP,Sound\scream1.wav,,2,0,2,0,,,,,,,,,0,1,1,14,,,,,,,,,,,,,,,,,,,,,,,,,,,,,354.60780340002384,None,,,,,,,,,,,,,,,,,352.51727399998344,None,352.51727399998344,None,353.52620570000727,None,353.52620570000727,None,353.5347136600292,None,,,,,,,,,,,,,hyz1102,001,2021_Nov_02_1604,FigureTest,2021.2.1,59.97940306976616,
,0.9,,Condition\CS+3.BMP,Condition\UCS3.BMP,Sound\scream1.wav,,2,0,2,0,,,,,,,,,0,2,2,7,,,,,,,,,,,,,,,,,,,,,,,,,,,,,356.79431369999656,None,,,,,,,,,,,,,,,,,354.7445425000042,None,354.7445425000042,None,355.76485590002267,None,355.76485590002267,None,355.7686048600124,None,,,,,,,,,,,,,hyz1102,001,2021_Nov_02_1604,FigureTest,2021.2.1,59.97940306976616,
,0.9,,Condition\CS+3.BMP,Condition\UCS3.BMP,Sound\scream1.wav,,2,0,2,0,,,,,,,,,0,3,3,12,,,,,,,,,,,,,,,,,,,,,,,,,,,,,358.95260740001686,None,,,,,,,,,,,,,,,,,356.9355113999918,None,356.9355113999918,None,357.9611575999879,None,357.9611575999879,None,357.966915460024,None,,,,,,,,,,,,,hyz1102,001,2021_Nov_02_1604,FigureTest,2021.2.1,59.97940306976616,
,-0.1,,Condition\CS+3.BMP,Condition\black.PNG,Sound\silent.wav,,2,0,2,0,,,,,,,,,0,4,4,2,,,,,,,,,,,,,,,,,,,,,,,,,,,,,363.4834394000354,None,,,,,,,,,,,,,,,,,358.9831196999876,None,358.9831196999876,None,None,None,None,None,None,None,,,,,,,,,,,,,hyz1102,001,2021_Nov_02_1604,FigureTest,2021.2.1,59.97940306976616,
,0.4,,Condition\CS-3.BMP,Condition\black.PNG,Sound\silent.wav,,2,0,2,0,,,,,,,,,0,5,5,29,,,,,,,,,,,,,,,,,,,,,,,,,,,,,365.60824420000426,None,,,,,,,,,,,,,,,,,363.598865500011,None,363.598865500011,None,365.5862724999897,None,365.5862724999897,None,365.5162897799513,None,,,,,,,,,,,,,hyz1102,001,2021_Nov_02_1604,FigureTest,2021.2.1,59.97940306976616,
,0.9,,Condition\CS+3.BMP,Condition\UCS3.BMP,Sound\scream1.wav,,2,0,2,0,,,,,,,,,0,6,6,3,,,,,,,,,,,,,,,,,,,,,,,,,,,,,367.7117234999896,None,,,,,,,,,,,,,,,,,365.66433300002245,None,365.66433300002245,None,366.78226430003997,None,366.78226430003997,None,366.7918728400138,None,,,,,,,,,,,,,hyz1102,001,2021_Nov_02_1604,FigureTest,2021.2.1,59.97940306976616,
,0.4,,Condition\CS-3.BMP,Condition\black.PNG,Sound\silent.wav,,2,0,2,0,,,,,,,,,0,7,7,26,,,,,,,,,,,,,,,,,,,,,,,,,,,,,372.3605894999928,None,,,,,,,,,,,,,,,,,367.8515408000094,None,367.8515408000094,None,None,None,None,None,None,None,,,,,,,,,,,,,hyz1102,001,2021_Nov_02_1604,FigureTest,2021.2.1,59.97940306976616,
,0.9,,Condition\CS+3.BMP,Condition\UCS3.BMP,Sound\scream1.wav,,2,0,2,0,,,,,,,,,0,8,8,10,,,,,,,,,,,,,,,,,,,,,,,,,,,,,374.5260067000054,None,,,,,,,,,,,,,,,,,372.49761600000784,None,372.49761600000784,None,373.61704169999575,None,373.61704169999575,None,373.62827694001606,None,,,,,,,,,,,,,hyz1102,001,2021_Nov_02_1604,FigureTest,2021.2.1,59.97940306976616,
,0.4,,Condition\CS-3.BMP,Condition\black.PNG,Sound\silent.wav,,2,0,2,0,,,,,,,,,0,9,9,19,,,,,,,,,,,,,,,,,,,,,,,,,,,,,379.24025929998606,None,,,,,,,,,,,,,,,,,374.7535802000202,None,374.7535802000202,None,None,None,None,None,None,None,,,,,,,,,,,,,hyz1102,001,2021_Nov_02_1604,FigureTest,2021.2.1,59.97940306976616,
,0.9,,Condition\CS+3.BMP,Condition\UCS3.BMP,Sound\scream1.wav,,2,0,2,0,,,,,,,,,0,10,10,5,,,,,,,,,,,,,,,,,,,,,,,,,,,,,381.53152570000384,None,,,,,,,,,,,,,,,,,379.47358390002046,None,379.47358390002046,None,380.5922219000058,None,380.5922219000058,None,380.5880774099903,None,,,,,,,,,,,,,hyz1102,001,2021_Nov_02_1604,FigureTest,2021.2.1,59.97940306976616,
,0.4,,Condition\CS-3.BMP,Condition\black.PNG,Sound\silent.wav,,2,0,2,0,,,,,,,,,0,11,11,22,,,,,,,,,,,,,,,,,,,,,,,,,,,,,386.25617509998847,None,,,,,,,,,,,,,,,,,381.7708287999849,None,381.7708287999849,None,None,None,None,None,None,None,,,,,,,,,,,,,hyz1102,001,2021_Nov_02_1604,FigureTest,2021.2.1,59.97940306976616,
,0.9,,Condition\CS+3.BMP,Condition\UCS3.BMP,Sound\scream1.wav,,2,0,2,0,,,,,,,,,0,12,12,13,,,,,,,,,,,,,,,,,,,,,,,,,,,,,388.3752321000211,None,,,,,,,,,,,,,,,,,386.2900506000151,None,386.2900506000151,None,387.39786690002074,None,387.39786690002074,None,387.40710534002864,None,,,,,,,,,,,,,hyz1102,001,2021_Nov_02_1604,FigureTest,2021.2.1,59.97940306976616,
,0.9,,Condition\CS+3.BMP,Condition\UCS3.BMP,Sound\scream1.wav,,2,0,2,0,,,,,,,,,0,13,13,9,,,,,,,,,,,,,,,,,,,,,,,,,,,,,390.5395605000085,None,,,,,,,,,,,,,,,,,388.4572269000346,None,388.4572269000346,None,389.46761920000426,None,389.46761920000426,None,389.46734823001896,None,,,,,,,,,,,,,hyz1102,001,2021_Nov_02_1604,FigureTest,2021.2.1,59.97940306976616,
,0.4,,Condition\CS-3.BMP,Condition\black.PNG,Sound\silent.wav,,2,0,2,0,,,,,,,,,0,14,14,28,,,,,,,,,,,,,,,,,,,,,,,,,,,,,395.3585473999847,None,,,,,,,,,,,,,,,,,390.885045300005,None,390.885045300005,None,None,None,None,None,None,None,,,,,,,,,,,,,hyz1102,001,2021_Nov_02_1604,FigureTest,2021.2.1,59.97940306976616,
,0.4,,Condition\CS-3.BMP,Condition\black.PNG,Sound\silent.wav,,2,0,2,0,,,,,,,,,0,15,15,20,,,,,,,,,,,,,,,,,,,,,,,,,,,,,397.71249410003657,None,,,,,,,,,,,,,,,,,395.67378429998644,None,395.67378429998644,None,397.6629406000138,None,397.6629406000138,None,397.5919731799862,None,,,,,,,,,,,,,hyz1102,001,2021_Nov_02_1604,FigureTest,2021.2.1,59.97940306976616,
,0.9,,Condition\CS+3.BMP,Condition\UCS3.BMP,Sound\scream1.wav,,2,0,2,0,,,,,,,,,0,16,16,11,,,,,,,,,,,,,,,,,,,,,,,,,,,,,399.79043029999593,None,,,,,,,,,,,,,,,,,397.73293350002496,None,397.73293350002496,None,398.83735929999966,None,398.83735929999966,None,398.8493023399962,None,,,,,,,,,,,,,hyz1102,001,2021_Nov_02_1604,FigureTest,2021.2.1,59.97940306976616,
,0.4,,Condition\CS-3.BMP,Condition\black.PNG,Sound\silent.wav,,2,0,2,0,,,,,,,,,0,17,17,27,,,,,,,,,,,,,,,,,,,,,,,,,,,,,404.47705729998415,None,,,,,,,,,,,,,,,,,399.97380800003884,None,399.97380800003884,None,None,None,None,None,None,None,,,,,,,,,,,,,hyz1102,001,2021_Nov_02_1604,FigureTest,2021.2.1,59.97940306976616,
,0.4,,Condition\CS-3.BMP,Condition\black.PNG,Sound\silent.wav,,2,0,2,0,,,,,,,,,0,18,18,23,,,,,,,,,,,,,,,,,,,,,,,,,,,,,406.78411780000897,None,,,,,,,,,,,,,,,,,404.76066120003816,None,404.76066120003816,None,406.70088509999914,None,406.70088509999914,None,406.6598015499476,None,,,,,,,,,,,,,hyz1102,001,2021_Nov_02_1604,FigureTest,2021.2.1,59.97940306976616,
,0.4,,Condition\CS-3.BMP,Condition\black.PNG,Sound\silent.wav,,2,0,2,0,,,,,,,,,0,19,19,15,,,,,,,,,,,,,,,,,,,,,,,,,,,,,408.94556309998734,None,,,,,,,,,,,,,,,,,406.92803670000285,None,406.92803670000285,None,408.87671290000435,None,408.87671290000435,None,408.8363710499543,None,,,,,,,,,,,,,hyz1102,001,2021_Nov_02_1604,FigureTest,2021.2.1,59.97940306976616,
,0.4,,Condition\CS-3.BMP,Condition\black.PNG,Sound\silent.wav,,2,0,2,0,,,,,,,,,0,20,20,18,,,,,,,,,,,,,,,,,,,,,,,,,,,,,411.11287110002013,None,,,,,,,,,,,,,,,,,409.06390370003646,None,409.06390370003646,None,411.03524150000885,None,411.03524150000885,None,410.97921857998006,None,,,,,,,,,,,,,hyz1102,001,2021_Nov_02_1604,FigureTest,2021.2.1,59.97940306976616,
,0.4,,Condition\CS-3.BMP,Condition\black.PNG,Sound\silent.wav,,2,0,2,0,,,,,,,,,0,21,21,17,,,,,,,,,,,,,,,,,,,,,,,,,,,,,413.21559909998905,None,,,,,,,,,,,,,,,,,411.1561129000038,None,411.1561129000038,None,413.1691470000078,None,413.1691470000078,None,413.10594063996103,None,,,,,,,,,,,,,hyz1102,001,2021_Nov_02_1604,FigureTest,2021.2.1,59.97940306976616,
,-0.1,,Condition\CS+3.BMP,Condition\black.PNG,Sound\silent.wav,,2,0,2,0,,,,,,,,,0,22,22,0,,,,,,,,,,,,,,,,,,,,,,,,,,,,,415.3716231000144,None,,,,,,,,,,,,,,,,,413.3446931000217,None,413.3446931000217,None,415.3202963999938,None,415.3202963999938,None,415.256970849965,None,,,,,,,,,,,,,hyz1102,001,2021_Nov_02_1604,FigureTest,2021.2.1,59.97940306976616,
,0.9,,Condition\CS+3.BMP,Condition\UCS3.BMP,Sound\scream1.wav,,2,0,2,0,,,,,,,,,0,23,23,8,,,,,,,,,,,,,,,,,,,,,,,,,,,,,417.6028910999885,None,,,,,,,,,,,,,,,,,415.5809747999883,None,415.5809747999883,None,416.6998257000232,None,416.6998257000232,None,416.7096162399859,None,,,,,,,,,,,,,hyz1102,001,2021_Nov_02_1604,FigureTest,2021.2.1,59.97940306976616,
,-0.1,,Condition\CS+3.BMP,Condition\black.PNG,Sound\silent.wav,,2,0,2,0,,,,,,,,,0,24,24,1,,,,,,,,,,,,,,,,,,,,,,,,,,,,,422.33582400000887,None,,,,,,,,,,,,,,,,,417.8691603000043,None,417.8691603000043,None,None,None,None,None,None,None,,,,,,,,,,,,,hyz1102,001,2021_Nov_02_1604,FigureTest,2021.2.1,59.97940306976616,
,0.4,,Condition\CS-3.BMP,Condition\black.PNG,Sound\silent.wav,,2,0,2,0,,,,,,,,,0,25,25,21,,,,,,,,,,,,,,,,,,,,,,,,,,,,,424.5245209999848,None,,,,,,,,,,,,,,,,,422.4869292000076,None,422.4869292000076,None,424.4450594999944,None,424.4450594999944,None,424.38019221994324,None,,,,,,,,,,,,,hyz1102,001,2021_Nov_02_1604,FigureTest,2021.2.1,59.97940306976616,
,0.4,,Condition\CS-3.BMP,Condition\black.PNG,Sound\silent.wav,,2,0,2,0,,,,,,,,,0,26,26,16,,,,,,,,,,,,,,,,,,,,,,,,,,,,,426.6044854000211,None,,,,,,,,,,,,,,,,,424.5650587999844,None,424.5650587999844,None,426.5598960000207,None,426.5598960000207,None,426.49803870996107,None,,,,,,,,,,,,,hyz1102,001,2021_Nov_02_1604,FigureTest,2021.2.1,59.97940306976616,
,0.4,,Condition\CS-3.BMP,Condition\black.PNG,Sound\silent.wav,,2,0,2,0,,,,,,,,,0,27,27,25,,,,,,,,,,,,,,,,,,,,,,,,,,,,,428.8125672999886,None,,,,,,,,,,,,,,,,,426.79168219998246,None,426.79168219998246,None,428.7829734000261,None,428.7829734000261,None,428.7159186799894,None,,,,,,,,,,,,,hyz1102,001,2021_Nov_02_1604,FigureTest,2021.2.1,59.97940306976616,
,0.4,,Condition\CS-3.BMP,Condition\black.PNG,Sound\silent.wav,,2,0,2,0,,,,,,,,,0,28,28,24,,,,,,,,,,,,,,,,,,,,,,,,,,,,,431.11444460001076,None,,,,,,,,,,,,,,,,,429.0706186000025,None,429.0706186000025,None,431.03679019998526,None,431.03679019998526,None,430.98691677998283,None,,,,,,,,,,,,,hyz1102,001,2021_Nov_02_1604,FigureTest,2021.2.1,59.97940306976616,
,0.9,,Condition\CS+3.BMP,Condition\UCS3.BMP,Sound\scream1.wav,,2,0,2,0,,,,,,,,,0,29,29,6,,,,,,,,,,,,,,,,,,,,,,,,,,,,,433.2165396999917,None,,,,,,,,,,,,,,,,,431.2078618000378,None,431.2078618000378,None,432.3101225999999,None,432.3101225999999,None,432.3073464099841,None,,,,,,,,,,,,,hyz1102,001,2021_Nov_02_1604,FigureTest,2021.2.1,59.97940306976616,
,-0.1,Rating\ratingCS+3.png,,,,,2,0,2,0,,,,,,,,,,,,,0,0,0,0,,,,,,,,,,,,,,,,,,,,,,,,,,,434.81884230003925,None,434.81884230003925,None,2.0390624999999996,133.469764199981,434.81884230003925,None,,,,,,,,,,,,,,,,,,,,,,,,,,,,,,,hyz1102,001,2021_Nov_02_1604,FigureTest,2021.2.1,59.97940306976616,
,0.4,Rating\ratingCS-3.png,,,,,2,0,2,0,,,,,,,,,,,,,0,1,1,1,,,,,,,,,,,,,,,,,,,,,,,,,,,569.6868414999917,None,569.6868414999917,None,1.8203124999999998,0.7247561999829486,569.6868414999917,None,,,,,,,,,,,,,,,,,,,,,,,,,,,,,,,hyz1102,001,2021_Nov_02_1604,FigureTest,2021.2.1,59.97940306976616,
,,,,,,,2,0,2,0,,,,,,,,,,,,,,,,,,,,,,,,,,,,,,,,,,,,,,,,,,,,,,,,,,,,,,,,,,,,,,,,,,,,,,,,,,,,,,,,,hyz1102,001,2021_Nov_02_1604,FigureTest,2021.2.1,59.97940306976616,
,,,,,,,,,,,,,,,,,,,,,,,,,,,,,,,,,,,,,,,,,,,,,,,,,,,,,,,,,,,,,,,,,,,,,,,,,,,,,,,570.4982090999838,None,570.4982090999838,None,space,2.3453065000358038,570.4982090999838,None,,,,,hyz1102,001,2021_Nov_02_1604,FigureTest,2021.2.1,59.97940306976616,
,-0.1,,,,,Extinction\CS+1.BMP,,,,,,,,,,,,,,,,,,,,,0,0,0,0,0,0,0,2,,,,,,,,,,,,,,,,,573.8859065999859,None,,,,,,,,,,,,,,,,,,,,,,,,,,,,,,,,,,,572.888521099987,None,572.888521099987,None,hyz1102,001,2021_Nov_02_1604,FigureTest,2021.2.1,59.97940306976616,
,-0.1,,,,,Extinction\CS+1.BMP,,,,,,,,,,,,,,,,,,,,,0,0,0,0,0,1,1,0,,,,,,,,,,,,,,,,,574.9534072999959,None,,,,,,,,,,,,,,,,,,,,,,,,,,,,,,,,,,,573.9520757999853,None,573.9520757999853,None,hyz1102,001,2021_Nov_02_1604,FigureTest,2021.2.1,59.97940306976616,
,-0.1,,,,,Extinction\CS+1.BMP,,,,,,,,,,,,,,,,,,,,,0,0,0,0,0,2,2,1,,,,,,,,,,,,,,,,,576.0193010999938,None,,,,,,,,,,,,,,,,,,,,,,,,,,,,,,,,,,,575.0192389999866,None,575.0192389999866,None,hyz1102,001,2021_Nov_02_1604,FigureTest,2021.2.1,59.97940306976616,
,0.4,,,,,Extinction\CS-1.BMP,,,,,,,,,,,,,,,,,,,,,0,0,0,0,0,3,3,17,,,,,,,,,,,,,,,,,577.1688305999851,None,,,,,,,,,,,,,,,,,,,,,,,,,,,,,,,,,,,576.1583804999827,None,576.1583804999827,None,hyz1102,001,2021_Nov_02_1604,FigureTest,2021.2.1,59.97940306976616,
,0.4,,,,,Extinction\CS-1.BMP,,,,,,,,,,,,,,,,,,,,,0,0,0,0,0,4,4,11,,,,,,,,,,,,,,,,,578.2690305000287,None,,,,,,,,,,,,,,,,,,,,,,,,,,,,,,,,,,,577.2682169000036,None,577.2682169000036,None,hyz1102,001,2021_Nov_02_1604,FigureTest,2021.2.1,59.97940306976616,
,0.4,,,,,Extinction\CS-1.BMP,,,,,,,,,,,,,,,,,,,,,0,0,0,0,0,5,5,12,,,,,,,,,,,,,,,,,579.3534209000063,None,,,,,,,,,,,,,,,,,,,,,,,,,,,,,,,,,,,578.3521050999989,None,578.3521050999989,None,hyz1102,001,2021_Nov_02_1604,FigureTest,2021.2.1,59.97940306976616,
,-0.1,,,,,Extinction\CS+1.BMP,,,,,,,,,,,,,,,,,,,,,0,0,0,0,0,6,6,6,,,,,,,,,,,,,,,,,580.5523819000227,None,,,,,,,,,,,,,,,,,,,,,,,,,,,,,,,,,,,579.5418848000118,None,579.5418848000118,None,hyz1102,001,2021_Nov_02_1604,FigureTest,2021.2.1,59.97940306976616,
,0.4,,,,,Extinction\CS-1.BMP,,,,,,,,,,,,,,,,,,,,,0,0,0,0,0,7,7,19,,,,,,,,,,,,,,,,,581.8014610999962,None,,,,,,,,,,,,,,,,,,,,,,,,,,,,,,,,,,,580.7910828000167,None,580.7910828000167,None,hyz1102,001,2021_Nov_02_1604,FigureTest,2021.2.1,59.97940306976616,
,-0.1,,,,,Extinction\CS+1.BMP,,,,,,,,,,,,,,,,,,,,,0,0,0,0,0,8,8,3,,,,,,,,,,,,,,,,,582.9362060999847,None,,,,,,,,,,,,,,,,,,,,,,,,,,,,,,,,,,,581.932574400038,None,581.932574400038,None,hyz1102,001,2021_Nov_02_1604,FigureTest,2021.2.1,59.97940306976616,
,-0.1,,,,,Extinction\CS+1.BMP,,,,,,,,,,,,,,,,,,,,,0,0,0,0,0,9,9,7,,,,,,,,,,,,,,,,,584.1185037000105,None,,,,,,,,,,,,,,,,,,,,,,,,,,,,,,,,,,,583.11821710004,None,583.11821710004,None,hyz1102,001,2021_Nov_02_1604,FigureTest,2021.2.1,59.97940306976616,
,0.4,,,,,Extinction\CS-1.BMP,,,,,,,,,,,,,,,,,,,,,0,0,0,0,0,10,10,13,,,,,,,,,,,,,,,,,585.4538337999838,None,,,,,,,,,,,,,,,,,,,,,,,,,,,,,,,,,,,584.447551499994,None,584.447551499994,None,hyz1102,001,2021_Nov_02_1604,FigureTest,2021.2.1,59.97940306976616,
,-0.1,,,,,Extinction\CS+1.BMP,,,,,,,,,,,,,,,,,,,,,0,0,0,0,0,11,11,9,,,,,,,,,,,,,,,,,586.7204133000341,None,,,,,,,,,,,,,,,,,,,,,,,,,,,,,,,,,,,585.7205762999947,None,585.7205762999947,None,hyz1102,001,2021_Nov_02_1604,FigureTest,2021.2.1,59.97940306976616,
,0.4,,,,,Extinction\CS-1.BMP,,,,,,,,,,,,,,,,,,,,,0,0,0,0,0,12,12,16,,,,,,,,,,,,,,,,,587.7845035000355,None,,,,,,,,,,,,,,,,,,,,,,,,,,,,,,,,,,,586.7829803000204,None,586.7829803000204,None,hyz1102,001,2021_Nov_02_1604,FigureTest,2021.2.1,59.97940306976616,
,-0.1,,,,,Extinction\CS+1.BMP,,,,,,,,,,,,,,,,,,,,,0,0,0,0,0,13,13,4,,,,,,,,,,,,,,,,,589.0177106999909,None,,,,,,,,,,,,,,,,,,,,,,,,,,,,,,,,,,,588.0226081000292,None,588.0226081000292,None,hyz1102,001,2021_Nov_02_1604,FigureTest,2021.2.1,59.97940306976616,
,0.4,,,,,Extinction\CS-1.BMP,,,,,,,,,,,,,,,,,,,,,0,0,0,0,0,14,14,10,,,,,,,,,,,,,,,,,590.2016309000319,None,,,,,,,,,,,,,,,,,,,,,,,,,,,,,,,,,,,589.1897937000031,None,589.1897937000031,None,hyz1102,001,2021_Nov_02_1604,FigureTest,2021.2.1,59.97940306976616,
,-0.1,,,,,Extinction\CS+1.BMP,,,,,,,,,,,,,,,,,,,,,0,0,0,0,0,15,15,5,,,,,,,,,,,,,,,,,591.4339958000346,None,,,,,,,,,,,,,,,,,,,,,,,,,,,,,,,,,,,590.4260305000353,None,590.4260305000353,None,hyz1102,001,2021_Nov_02_1604,FigureTest,2021.2.1,59.97940306976616,
,0.4,,,,,Extinction\CS-1.BMP,,,,,,,,,,,,,,,,,,,,,0,0,0,0,0,16,16,18,,,,,,,,,,,,,,,,,592.5669398999889,None,,,,,,,,,,,,,,,,,,,,,,,,,,,,,,,,,,,591.5567319000256,None,591.5567319000256,None,hyz1102,001,2021_Nov_02_1604,FigureTest,2021.2.1,59.97940306976616,
,-0.1,,,,,Extinction\CS+1.BMP,,,,,,,,,,,,,,,,,,,,,0,0,0,0,0,17,17,8,,,,,,,,,,,,,,,,,593.7170578000369,None,,,,,,,,,,,,,,,,,,,,,,,,,,,,,,,,,,,592.7063070000149,None,592.7063070000149,None,hyz1102,001,2021_Nov_02_1604,FigureTest,2021.2.1,59.97940306976616,
,0.4,,,,,Extinction\CS-1.BMP,,,,,,,,,,,,,,,,,,,,,0,0,0,0,0,18,18,14,,,,,,,,,,,,,,,,,595.0009161999915,None,,,,,,,,,,,,,,,,,,,,,,,,,,,,,,,,,,,593.9900707000052,None,593.9900707000052,None,hyz1102,001,2021_Nov_02_1604,FigureTest,2021.2.1,59.97940306976616,
,0.4,,,,,Extinction\CS-1.BMP,,,,,,,,,,,,,,,,,,,,,0,0,0,0,0,19,19,15,,,,,,,,,,,,,,,,,596.1367226000293,None,,,,,,,,,,,,,,,,,,,,,,,,,,,,,,,,,,,595.1251954000327,None,595.1251954000327,None,hyz1102,001,2021_Nov_02_1604,FigureTest,2021.2.1,59.97940306976616,
,-0.1,Rating\ratingCS+3.png,,,,,,,,,,,,,,,,,,,,,,,,,0,0,0,0,,,,,0,0,0,0,,,,,,,,,,,,,,,597.8180597000173,None,597.8180597000173,None,2.7734375,11.044897400017362,597.8180597000173,None,,,,,,,,,,,,,,,,,,,,,,,,,,,,,,,hyz1102,001,2021_Nov_02_1604,FigureTest,2021.2.1,59.97940306976616,
,0.4,Rating\ratingCS-3.png,,,,,,,,,,,,,,,,,,,,,,,,,0,0,0,0,,,,,0,1,1,1,,,,,,,,,,,,,,,610.2475062999874,None,610.2475062999874,None,2.4140625,1.3934327000170015,610.2475062999874,None,,,,,,,,,,,,,,,,,,,,,,,,,,,,,,,hyz1102,001,2021_Nov_02_1604,FigureTest,2021.2.1,59.97940306976616,
,,,,,,,,,,,,,,,,,,,,,,,,,,,0,0,0,0,,,,,,,,,,,,,,,,,,,,,,,,,,,,,,,,,,,,,,,,,,,,,,,,,,,,,,,,,,,,,hyz1102,001,2021_Nov_02_1604,FigureTest,2021.2.1,59.97940306976616,
,-0.1,,,,,Extinction\CS+1.BMP,,,,,,,,,,,,,,,,,,,,,1,0,1,0,0,0,0,7,,,,,,,,,,,,,,,,,612.7168874000199,None,,,,,,,,,,,,,,,,,,,,,,,,,,,,,,,,,,,611.7420371000189,None,611.7420371000189,None,hyz1102,001,2021_Nov_02_1604,FigureTest,2021.2.1,59.97940306976616,
,-0.1,,,,,Extinction\CS+1.BMP,,,,,,,,,,,,,,,,,,,,,1,0,1,0,0,1,1,6,,,,,,,,,,,,,,,,,613.8818805000046,None,,,,,,,,,,,,,,,,,,,,,,,,,,,,,,,,,,,612.8823289999855,None,612.8823289999855,None,hyz1102,001,2021_Nov_02_1604,FigureTest,2021.2.1,59.97940306976616,
,-0.1,,,,,Extinction\CS+1.BMP,,,,,,,,,,,,,,,,,,,,,1,0,1,0,0,2,2,1,,,,,,,,,,,,,,,,,615.0153588000103,None,,,,,,,,,,,,,,,,,,,,,,,,,,,,,,,,,,,614.0166634999914,None,614.0166634999914,None,hyz1102,001,2021_Nov_02_1604,FigureTest,2021.2.1,59.97940306976616,
,0.4,,,,,Extinction\CS-1.BMP,,,,,,,,,,,,,,,,,,,,,1,0,1,0,0,3,3,14,,,,,,,,,,,,,,,,,616.1645145000075,None,,,,,,,,,,,,,,,,,,,,,,,,,,,,,,,,,,,615.1579333000118,None,615.1579333000118,None,hyz1102,001,2021_Nov_02_1604,FigureTest,2021.2.1,59.97940306976616,
,-0.1,,,,,Extinction\CS+1.BMP,,,,,,,,,,,,,,,,,,,,,1,0,1,0,0,4,4,8,,,,,,,,,,,,,,,,,617.2502543000155,None,,,,,,,,,,,,,,,,,,,,,,,,,,,,,,,,,,,616.2601129999966,None,616.2601129999966,None,hyz1102,001,2021_Nov_02_1604,FigureTest,2021.2.1,59.97940306976616,
,-0.1,,,,,Extinction\CS+1.BMP,,,,,,,,,,,,,,,,,,,,,1,0,1,0,0,5,5,9,,,,,,,,,,,,,,,,,618.3185184000176,None,,,,,,,,,,,,,,,,,,,,,,,,,,,,,,,,,,,617.3142644999898,None,617.3142644999898,None,hyz1102,001,2021_Nov_02_1604,FigureTest,2021.2.1,59.97940306976616,
,0.4,,,,,Extinction\CS-1.BMP,,,,,,,,,,,,,,,,,,,,,1,0,1,0,0,6,6,12,,,,,,,,,,,,,,,,,619.6566946000094,None,,,,,,,,,,,,,,,,,,,,,,,,,,,,,,,,,,,618.6693044999847,None,618.6693044999847,None,hyz1102,001,2021_Nov_02_1604,FigureTest,2021.2.1,59.97940306976616,
,0.4,,,,,Extinction\CS-1.BMP,,,,,,,,,,,,,,,,,,,,,1,0,1,0,0,7,7,18,,,,,,,,,,,,,,,,,620.822909599985,None,,,,,,,,,,,,,,,,,,,,,,,,,,,,,,,,,,,619.8088263000245,None,619.8088263000245,None,hyz1102,001,2021_Nov_02_1604,FigureTest,2021.2.1,59.97940306976616,
,0.4,,,,,Extinction\CS-1.BMP,,,,,,,,,,,,,,,,,,,,,1,0,1,0,0,8,8,17,,,,,,,,,,,,,,,,,621.9559070999967,None,,,,,,,,,,,,,,,,,,,,,,,,,,,,,,,,,,,620.9460009000031,None,620.9460009000031,None,hyz1102,001,2021_Nov_02_1604,FigureTest,2021.2.1,59.97940306976616,
,0.4,,,,,Extinction\CS-1.BMP,,,,,,,,,,,,,,,,,,,,,1,0,1,0,0,9,9,13,,,,,,,,,,,,,,,,,623.1884253000026,None,,,,,,,,,,,,,,,,,,,,,,,,,,,,,,,,,,,622.1773633999983,None,622.1773633999983,None,hyz1102,001,2021_Nov_02_1604,FigureTest,2021.2.1,59.97940306976616,
,0.4,,,,,Extinction\CS-1.BMP,,,,,,,,,,,,,,,,,,,,,1,0,1,0,0,10,10,16,,,,,,,,,,,,,,,,,624.3217058000155,None,,,,,,,,,,,,,,,,,,,,,,,,,,,,,,,,,,,623.3221216000384,None,623.3221216000384,None,hyz1102,001,2021_Nov_02_1604,FigureTest,2021.2.1,59.97940306976616,
,-0.1,,,,,Extinction\CS+1.BMP,,,,,,,,,,,,,,,,,,,,,1,0,1,0,0,11,11,0,,,,,,,,,,,,,,,,,625.5560450000339,None,,,,,,,,,,,,,,,,,,,,,,,,,,,,,,,,,,,624.5502142999903,None,624.5502142999903,None,hyz1102,001,2021_Nov_02_1604,FigureTest,2021.2.1,59.97940306976616,
,-0.1,,,,,Extinction\CS+1.BMP,,,,,,,,,,,,,,,,,,,,,1,0,1,0,0,12,12,3,,,,,,,,,,,,,,,,,626.5886473000282,None,,,,,,,,,,,,,,,,,,,,,,,,,,,,,,,,,,,625.5775632000295,None,625.5775632000295,None,hyz1102,001,2021_Nov_02_1604,FigureTest,2021.2.1,59.97940306976616,
,0.4,,,,,Extinction\CS-1.BMP,,,,,,,,,,,,,,,,,,,,,1,0,1,0,0,13,13,10,,,,,,,,,,,,,,,,,627.8049864000059,None,,,,,,,,,,,,,,,,,,,,,,,,,,,,,,,,,,,626.7994427999947,None,626.7994427999947,None,hyz1102,001,2021_Nov_02_1604,FigureTest,2021.2.1,59.97940306976616,
,0.4,,,,,Extinction\CS-1.BMP,,,,,,,,,,,,,,,,,,,,,1,0,1,0,0,14,14,11,,,,,,,,,,,,,,,,,628.9059105000342,None,,,,,,,,,,,,,,,,,,,,,,,,,,,,,,,,,,,627.904929500015,None,627.904929500015,None,hyz1102,001,2021_Nov_02_1604,FigureTest,2021.2.1,59.97940306976616,
,-0.1,,,,,Extinction\CS+1.BMP,,,,,,,,,,,,,,,,,,,,,1,0,1,0,0,15,15,2,,,,,,,,,,,,,,,,,630.1791633000248,None,,,,,,,,,,,,,,,,,,,,,,,,,,,,,,,,,,,629.100419400027,None,629.100419400027,None,hyz1102,001,2021_Nov_02_1604,FigureTest,2021.2.1,59.97940306976616,
,,,,,,,,,,,,,,,,,,,,,,,,,,,,,,,,,,,,,,,,,,,,,,,,,,,,,,,,,,,,,,,,,,,,,,,,,,,,,,,,,,,,,,,630.3876991000143,None,630.3876991000143,None,,,,,,,
