ExtName,TrgCol,ratingName,Session_Extinction.thisRepN,Session_Extinction.thisTrialN,Session_Extinction.thisN,Session_Extinction.thisIndex,Extinction.thisRepN,Extinction.thisTrialN,Extinction.thisN,Extinction.thisIndex,RatingExt.thisRepN,RatingExt.thisTrialN,RatingExt.thisN,RatingExt.thisIndex,InstrBkg3.started,InstrBkg3.stopped,TagFig3.started,TagFig3.stopped,key_resp_3.keys,key_resp_3.rt,key_resp_3.started,key_resp_3.stopped,ExtBkg.started,ExtBkg.stopped,Ext_image.started,Ext_image.stopped,BlankBkg.started,BlankBkg.stopped,Bkg.started,Bkg.stopped,image.started,image.stopped,Scale.response,Scale.rt,Scale.started,Scale.stopped,participant,session,date,expName,psychopyVersion,frameRate,
,,,,,,,,,,,,,,,19.290915499965195,None,19.290915499965195,None,space,2.9640388000407256,19.290915499965195,None,,,,,,,,,,,,,,,hyz1102,001,2021_Nov_02_1624,FigureTest,2021.2.1,59.80657357596314,
Extinction\CS+1.BMP,-0.1,,0,0,0,0,0,0,0,7,,,,,,,,,,,,,22.307910699979402,None,22.307910699979402,None,23.301543199981097,None,,,,,,,,,hyz1102,001,2021_Nov_02_1624,FigureTest,2021.2.1,59.80657357596314,
Extinction\CS-1.BMP,0.4,,0,0,0,0,0,1,1,15,,,,,,,,,,,,,23.39182089996757,None,23.39182089996757,None,24.3867070999695,None,,,,,,,,,hyz1102,001,2021_Nov_02_1624,FigureTest,2021.2.1,59.80657357596314,
Extinction\CS+1.BMP,-0.1,,0,0,0,0,0,2,2,4,,,,,,,,,,,,,24.543526699999347,None,24.543526699999347,None,25.55086149997078,None,,,,,,,,,hyz1102,001,2021_Nov_02_1624,FigureTest,2021.2.1,59.80657357596314,
Extinction\CS+1.BMP,-0.1,,0,0,0,0,0,3,3,6,,,,,,,,,,,,,25.672752499987837,None,25.672752499987837,None,26.684117899974808,None,,,,,,,,,hyz1102,001,2021_Nov_02_1624,FigureTest,2021.2.1,59.80657357596314,
Extinction\CS+1.BMP,-0.1,,0,0,0,0,0,4,4,9,,,,,,,,,,,,,26.833816699974705,None,26.833816699974705,None,27.83385619998444,None,,,,,,,,,hyz1102,001,2021_Nov_02_1624,FigureTest,2021.2.1,59.80657357596314,
Extinction\CS-1.BMP,0.4,,0,0,0,0,0,5,5,13,,,,,,,,,,,,,28.012946999981068,None,28.012946999981068,None,29.019633299962152,None,,,,,,,,,hyz1102,001,2021_Nov_02_1624,FigureTest,2021.2.1,59.80657357596314,
Extinction\CS-1.BMP,0.4,,0,0,0,0,0,6,6,14,,,,,,,,,,,,,29.05027899995912,None,29.05027899995912,None,30.050195799965877,None,,,,,,,,,hyz1102,001,2021_Nov_02_1624,FigureTest,2021.2.1,59.80657357596314,
Extinction\CS+1.BMP,-0.1,,0,0,0,0,0,7,7,0,,,,,,,,,,,,,30.296896799991373,None,30.296896799991373,None,31.300238099996932,None,,,,,,,,,hyz1102,001,2021_Nov_02_1624,FigureTest,2021.2.1,59.80657357596314,
Extinction\CS+1.BMP,-0.1,,0,0,0,0,0,8,8,3,,,,,,,,,,,,,31.383048499992583,None,31.383048499992583,None,32.38519709999673,None,,,,,,,,,hyz1102,001,2021_Nov_02_1624,FigureTest,2021.2.1,59.80657357596314,
Extinction\CS+1.BMP,-0.1,,0,0,0,0,0,9,9,5,,,,,,,,,,,,,32.635780499957036,None,32.635780499957036,None,33.6500354000018,None,,,,,,,,,hyz1102,001,2021_Nov_02_1624,FigureTest,2021.2.1,59.80657357596314,
Extinction\CS-1.BMP,0.4,,0,0,0,0,0,10,10,18,,,,,,,,,,,,,33.85916539997561,None,33.85916539997561,None,34.86649699998088,None,,,,,,,,,hyz1102,001,2021_Nov_02_1624,FigureTest,2021.2.1,59.80657357596314,
Extinction\CS-1.BMP,0.4,,0,0,0,0,0,11,11,11,,,,,,,,,,,,,35.0361939999857,None,35.0361939999857,None,36.05103999999119,None,,,,,,,,,hyz1102,001,2021_Nov_02_1624,FigureTest,2021.2.1,59.80657357596314,
Extinction\CS-1.BMP,0.4,,0,0,0,0,0,12,12,16,,,,,,,,,,,,,36.199394700000994,None,36.199394700000994,None,37.20055879995925,None,,,,,,,,,hyz1102,001,2021_Nov_02_1624,FigureTest,2021.2.1,59.80657357596314,
Extinction\CS-1.BMP,0.4,,0,0,0,0,0,13,13,19,,,,,,,,,,,,,37.367763399961405,None,37.367763399961405,None,38.367712799983565,None,,,,,,,,,hyz1102,001,2021_Nov_02_1624,FigureTest,2021.2.1,59.80657357596314,
Extinction\CS-1.BMP,0.4,,0,0,0,0,0,14,14,17,,,,,,,,,,,,,38.54950739996275,None,38.54950739996275,None,39.54938209999818,None,,,,,,,,,hyz1102,001,2021_Nov_02_1624,FigureTest,2021.2.1,59.80657357596314,
Extinction\CS+1.BMP,-0.1,,0,0,0,0,0,15,15,8,,,,,,,,,,,,,39.82152140000835,None,39.82152140000835,None,40.81477940001059,None,,,,,,,,,hyz1102,001,2021_Nov_02_1624,FigureTest,2021.2.1,59.80657357596314,
Extinction\CS+1.BMP,-0.1,,0,0,0,0,0,16,16,2,,,,,,,,,,,,,41.052889799990226,None,41.052889799990226,None,42.06491009995807,None,,,,,,,,,hyz1102,001,2021_Nov_02_1624,FigureTest,2021.2.1,59.80657357596314,
Extinction\CS+1.BMP,-0.1,,0,0,0,0,0,17,17,1,,,,,,,,,,,,,42.14700789999915,None,42.14700789999915,None,43.14724650001153,None,,,,,,,,,hyz1102,001,2021_Nov_02_1624,FigureTest,2021.2.1,59.80657357596314,
Extinction\CS-1.BMP,0.4,,0,0,0,0,0,18,18,12,,,,,,,,,,,,,43.326210299972445,None,43.326210299972445,None,44.33208109997213,None,,,,,,,,,hyz1102,001,2021_Nov_02_1624,FigureTest,2021.2.1,59.80657357596314,
Extinction\CS-1.BMP,0.4,,0,0,0,0,0,19,19,10,,,,,,,,,,,,,44.46367359999567,None,44.46367359999567,None,45.46365130000049,None,,,,,,,,,hyz1102,001,2021_Nov_02_1624,FigureTest,2021.2.1,59.80657357596314,
,-0.1,Rating\ratingCS+1.png,0,0,0,0,,,,,0,0,0,0,,,,,,,,,,,,,,,49.593503599986434,None,49.593503599986434,None,2.640625,1.9195741000003181,49.593503599986434,None,hyz1102,001,2021_Nov_02_1624,FigureTest,2021.2.1,59.80657357596314,
,0.4,Rating\ratingCS-1.png,0,0,0,0,,,,,0,1,1,1,,,,,,,,,,,,,,,52.945344000007026,None,52.945344000007026,None,2.1796875,0.5846863000188023,52.945344000007026,None,hyz1102,001,2021_Nov_02_1624,FigureTest,2021.2.1,59.80657357596314,
,,,0,0,0,0,,,,,,,,,,,,,,,,,,,,,,,,,,,,,,,hyz1102,001,2021_Nov_02_1624,FigureTest,2021.2.1,59.80657357596314,
Extinction\CS-1.BMP,0.4,,1,0,1,0,0,0,0,12,,,,,,,,,,,,,53.55471249995753,None,53.55471249995753,None,54.56423499999801,None,,,,,,,,,hyz1102,001,2021_Nov_02_1624,FigureTest,2021.2.1,59.80657357596314,
Extinction\CS-1.BMP,0.4,,1,0,1,0,0,1,1,17,,,,,,,,,,,,,54.84659719996853,None,54.84659719996853,None,55.854475900006946,None,,,,,,,,,hyz1102,001,2021_Nov_02_1624,FigureTest,2021.2.1,59.80657357596314,
Extinction\CS+1.BMP,-0.1,,1,0,1,0,0,2,2,6,,,,,,,,,,,,,55.95063849998405,None,55.95063849998405,None,56.95433380000759,None,,,,,,,,,hyz1102,001,2021_Nov_02_1624,FigureTest,2021.2.1,59.80657357596314,
Extinction\CS+1.BMP,-0.1,,1,0,1,0,0,3,3,1,,,,,,,,,,,,,57.17068629997084,None,57.17068629997084,None,58.1705277999863,None,,,,,,,,,hyz1102,001,2021_Nov_02_1624,FigureTest,2021.2.1,59.80657357596314,
Extinction\CS-1.BMP,0.4,,1,0,1,0,0,4,4,19,,,,,,,,,,,,,58.29889799997909,None,58.29889799997909,None,59.30478489998495,None,,,,,,,,,hyz1102,001,2021_Nov_02_1624,FigureTest,2021.2.1,59.80657357596314,
Extinction\CS-1.BMP,0.4,,1,0,1,0,0,5,5,14,,,,,,,,,,,,,59.41155089996755,None,59.41155089996755,None,60.420395499968436,None,,,,,,,,,hyz1102,001,2021_Nov_02_1624,FigureTest,2021.2.1,59.80657357596314,
Extinction\CS-1.BMP,0.4,,1,0,1,0,0,6,6,16,,,,,,,,,,,,,60.52013580000494,None,60.52013580000494,None,61.520458599959966,None,,,,,,,,,hyz1102,001,2021_Nov_02_1624,FigureTest,2021.2.1,59.80657357596314,
Extinction\CS-1.BMP,0.4,,1,0,1,0,0,7,7,11,,,,,,,,,,,,,61.60870079998858,None,61.60870079998858,None,62.62289439997403,None,,,,,,,,,hyz1102,001,2021_Nov_02_1624,FigureTest,2021.2.1,59.80657357596314,
Extinction\CS+1.BMP,-0.1,,1,0,1,0,0,8,8,8,,,,,,,,,,,,,62.8740884999861,None,62.8740884999861,None,63.870345500006806,None,,,,,,,,,hyz1102,001,2021_Nov_02_1624,FigureTest,2021.2.1,59.80657357596314,
Extinction\CS+1.BMP,-0.1,,1,0,1,0,0,9,9,4,,,,,,,,,,,,,64.02245299995411,None,64.02245299995411,None,65.03647839999758,None,,,,,,,,,hyz1102,001,2021_Nov_02_1624,FigureTest,2021.2.1,59.80657357596314,
Extinction\CS+1.BMP,-0.1,,1,0,1,0,0,10,10,9,,,,,,,,,,,,,65.16966189997038,None,65.16966189997038,None,66.17144339997321,None,,,,,,,,,hyz1102,001,2021_Nov_02_1624,FigureTest,2021.2.1,59.80657357596314,
Extinction\CS-1.BMP,0.4,,1,0,1,0,0,11,11,10,,,,,,,,,,,,,66.29696569999214,None,66.29696569999214,None,67.28887270000996,None,,,,,,,,,hyz1102,001,2021_Nov_02_1624,FigureTest,2021.2.1,59.80657357596314,
Extinction\CS-1.BMP,0.4,,1,0,1,0,0,12,12,13,,,,,,,,,,,,,67.54602449998492,None,67.54602449998492,None,68.5533817000105,None,,,,,,,,,hyz1102,001,2021_Nov_02_1624,FigureTest,2021.2.1,59.80657357596314,
Extinction\CS+1.BMP,-0.1,,1,0,1,0,0,13,13,7,,,,,,,,,,,,,68.66506199998548,None,68.66506199998548,None,69.6539092999883,None,,,,,,,,,hyz1102,001,2021_Nov_02_1624,FigureTest,2021.2.1,59.80657357596314,
Extinction\CS+1.BMP,-0.1,,1,0,1,0,0,14,14,3,,,,,,,,,,,,,69.72192759998143,None,69.72192759998143,None,70.73630519997096,None,,,,,,,,,hyz1102,001,2021_Nov_02_1624,FigureTest,2021.2.1,59.80657357596314,
Extinction\CS+1.BMP,-0.1,,1,0,1,0,0,15,15,2,,,,,,,,,,,,,70.83683859999292,None,70.83683859999292,None,71.83698729996104,None,,,,,,,,,hyz1102,001,2021_Nov_02_1624,FigureTest,2021.2.1,59.80657357596314,
Extinction\CS+1.BMP,-0.1,,1,0,1,0,0,16,16,0,,,,,,,,,,,,,71.99292389996117,None,71.99292389996117,None,73.00202590000117,None,,,,,,,,,hyz1102,001,2021_Nov_02_1624,FigureTest,2021.2.1,59.80657357596314,
Extinction\CS-1.BMP,0.4,,1,0,1,0,0,17,17,15,,,,,,,,,,,,,73.13000820000889,None,73.13000820000889,None,74.11910229997011,None,,,,,,,,,hyz1102,001,2021_Nov_02_1624,FigureTest,2021.2.1,59.80657357596314,
Extinction\CS-1.BMP,0.4,,1,0,1,0,0,18,18,18,,,,,,,,,,,,,74.24708509998163,None,74.24708509998163,None,75.25228839996271,None,,,,,,,,,hyz1102,001,2021_Nov_02_1624,FigureTest,2021.2.1,59.80657357596314,
Extinction\CS+1.BMP,-0.1,,1,0,1,0,0,19,19,5,,,,,,,,,,,,,75.42894489999162,None,75.42894489999162,None,76.43549939995864,None,,,,,,,,,hyz1102,001,2021_Nov_02_1624,FigureTest,2021.2.1,59.80657357596314,
,-0.1,Rating\ratingCS+1.png,1,0,1,0,,,,,0,0,0,0,,,,,,,,,,,,,,,78.0068445999641,None,78.0068445999641,None,2.796875,3.450972900027409,78.0068445999641,None,hyz1102,001,2021_Nov_02_1624,FigureTest,2021.2.1,59.80657357596314,
,0.4,Rating\ratingCS-1.png,1,0,1,0,,,,,0,1,1,1,,,,,,,,,,,,,,,83.01952749997145,None,83.01952749997145,None,2.2890625,0.6827669000485912,83.01952749997145,None,hyz1102,001,2021_Nov_02_1624,FigureTest,2021.2.1,59.80657357596314,
,,,1,0,1,0,,,,,,,,,,,,,,,,,,,,,,,,,,,,,,,hyz1102,001,2021_Nov_02_1624,FigureTest,2021.2.1,59.80657357596314,
Extinction\CS-1.BMP,0.4,,2,0,2,0,0,0,0,19,,,,,,,,,,,,,83.5673400000087,None,83.5673400000087,None,84.55747979995795,None,,,,,,,,,hyz1102,001,2021_Nov_02_1624,FigureTest,2021.2.1,59.80657357596314,
Extinction\CS+1.BMP,-0.1,,2,0,2,0,0,1,1,8,,,,,,,,,,,,,84.89017929998226,None,84.89017929998226,None,85.89325239998288,None,,,,,,,,,hyz1102,001,2021_Nov_02_1624,FigureTest,2021.2.1,59.80657357596314,
Extinction\CS-1.BMP,0.4,,2,0,2,0,0,2,2,10,,,,,,,,,,,,,86.03720209997846,None,86.03720209997846,None,87.02811730001122,None,,,,,,,,,hyz1102,001,2021_Nov_02_1624,FigureTest,2021.2.1,59.80657357596314,
Extinction\CS-1.BMP,0.4,,2,0,2,0,0,3,3,13,,,,,,,,,,,,,87.11471429996891,None,87.11471429996891,None,88.12658729997929,None,,,,,,,,,hyz1102,001,2021_Nov_02_1624,FigureTest,2021.2.1,59.80657357596314,
Extinction\CS+1.BMP,-0.1,,2,0,2,0,0,4,4,7,,,,,,,,,,,,,88.22176469996339,None,88.22176469996339,None,89.22604859998683,None,,,,,,,,,hyz1102,001,2021_Nov_02_1624,FigureTest,2021.2.1,59.80657357596314,
Extinction\CS-1.BMP,0.4,,2,0,2,0,0,5,5,18,,,,,,,,,,,,,89.30510259995935,None,89.30510259995935,None,90.29538639995735,None,,,,,,,,,hyz1102,001,2021_Nov_02_1624,FigureTest,2021.2.1,59.80657357596314,
Extinction\CS+1.BMP,-0.1,,2,0,2,0,0,6,6,1,,,,,,,,,,,,,90.5345598999993,None,90.5345598999993,None,91.52613710000878,None,,,,,,,,,hyz1102,001,2021_Nov_02_1624,FigureTest,2021.2.1,59.80657357596314,
Extinction\CS+1.BMP,-0.1,,2,0,2,0,0,7,7,5,,,,,,,,,,,,,91.59352479997324,None,91.59352479997324,None,92.5934760000091,None,,,,,,,,,hyz1102,001,2021_Nov_02_1624,FigureTest,2021.2.1,59.80657357596314,
Extinction\CS+1.BMP,-0.1,,2,0,2,0,0,8,8,9,,,,,,,,,,,,,92.76643049996346,None,92.76643049996346,None,93.77621889999136,None,,,,,,,,,hyz1102,001,2021_Nov_02_1624,FigureTest,2021.2.1,59.80657357596314,
Extinction\CS-1.BMP,0.4,,2,0,2,0,0,9,9,11,,,,,,,,,,,,,94.01915829995414,None,94.01915829995414,None,95.02584119996754,None,,,,,,,,,hyz1102,001,2021_Nov_02_1624,FigureTest,2021.2.1,59.80657357596314,
Extinction\CS-1.BMP,0.4,,2,0,2,0,0,10,10,15,,,,,,,,,,,,,95.30886449996615,None,95.30886449996615,None,96.30888239998603,None,,,,,,,,,hyz1102,001,2021_Nov_02_1624,FigureTest,2021.2.1,59.80657357596314,
Extinction\CS+1.BMP,-0.1,,2,0,2,0,0,11,11,3,,,,,,,,,,,,,96.45309019996785,None,96.45309019996785,None,97.45853699999861,None,,,,,,,,,hyz1102,001,2021_Nov_02_1624,FigureTest,2021.2.1,59.80657357596314,
Extinction\CS-1.BMP,0.4,,2,0,2,0,0,12,12,14,,,,,,,,,,,,,97.61929189995863,None,97.61929189995863,None,98.62520740000764,None,,,,,,,,,hyz1102,001,2021_Nov_02_1624,FigureTest,2021.2.1,59.80657357596314,
Extinction\CS-1.BMP,0.4,,2,0,2,0,0,13,13,12,,,,,,,,,,,,,98.87981059995946,None,98.87981059995946,None,99.89148469996871,None,,,,,,,,,hyz1102,001,2021_Nov_02_1624,FigureTest,2021.2.1,59.80657357596314,
Extinction\CS+1.BMP,-0.1,,2,0,2,0,0,14,14,0,,,,,,,,,,,,,100.06730319996132,None,100.06730319996132,None,101.07565859996248,None,,,,,,,,,hyz1102,001,2021_Nov_02_1624,FigureTest,2021.2.1,59.80657357596314,
Extinction\CS+1.BMP,-0.1,,2,0,2,0,0,15,15,2,,,,,,,,,,,,,101.30800739995902,None,101.30800739995902,None,102.30839500000002,None,,,,,,,,,hyz1102,001,2021_Nov_02_1624,FigureTest,2021.2.1,59.80657357596314,
Extinction\CS+1.BMP,-0.1,,2,0,2,0,0,16,16,4,,,,,,,,,,,,,102.42503549996763,None,102.42503549996763,None,103.4272665999597,None,,,,,,,,,hyz1102,001,2021_Nov_02_1624,FigureTest,2021.2.1,59.80657357596314,
Extinction\CS-1.BMP,0.4,,2,0,2,0,0,17,17,17,,,,,,,,,,,,,103.73452359996736,None,103.73452359996736,None,104.74217199999839,None,,,,,,,,,hyz1102,001,2021_Nov_02_1624,FigureTest,2021.2.1,59.80657357596314,
Extinction\CS+1.BMP,-0.1,,2,0,2,0,0,18,18,6,,,,,,,,,,,,,104.97175570001127,None,104.97175570001127,None,105.97491240000818,None,,,,,,,,,hyz1102,001,2021_Nov_02_1624,FigureTest,2021.2.1,59.80657357596314,
Extinction\CS-1.BMP,0.4,,2,0,2,0,0,19,19,16,,,,,,,,,,,,,106.00016459997278,None,106.00016459997278,None,107.00786899996456,None,,,,,,,,,hyz1102,001,2021_Nov_02_1624,FigureTest,2021.2.1,59.80657357596314,
,-0.1,Rating\ratingCS+1.png,2,0,2,0,,,,,0,0,0,0,,,,,,,,,,,,,,,108.7448710000026,None,108.7448710000026,None,2.5859374999999996,2.2852585000218824,108.7448710000026,None,hyz1102,001,2021_Nov_02_1624,FigureTest,2021.2.1,59.80657357596314,
,0.4,Rating\ratingCS-1.png,2,0,2,0,,,,,0,1,1,1,,,,,,,,,,,,,,,112.2920446000062,None,112.2920446000062,None,2.171875,0.535088500007987,112.2920446000062,None,hyz1102,001,2021_Nov_02_1624,FigureTest,2021.2.1,59.80657357596314,
,,,2,0,2,0,,,,,,,,,,,,,,,,,,,,,,,,,,,,,,,hyz1102,001,2021_Nov_02_1624,FigureTest,2021.2.1,59.80657357596314,
