PreCondName,TrgCol,ratingName,CSName,UCSName,SoundName,ExtName,Session_Condition.thisRepN,Session_Condition.thisTrialN,Session_Condition.thisN,Session_Condition.thisIndex,PreCond.thisRepN,PreCond.thisTrialN,PreCond.thisN,PreCond.thisIndex,RatingPreCond.thisRepN,RatingPreCond.thisTrialN,RatingPreCond.thisN,RatingPreCond.thisIndex,Cond.thisRepN,Cond.thisTrialN,Cond.thisN,Cond.thisIndex,RatingCond.thisRepN,RatingCond.thisTrialN,RatingCond.thisN,RatingCond.thisIndex,Session_Extinction.thisRepN,Session_Extinction.thisTrialN,Session_Extinction.thisN,Session_Extinction.thisIndex,Extinction.thisRepN,Extinction.thisTrialN,Extinction.thisN,Extinction.thisIndex,RatingExt.thisRepN,RatingExt.thisTrialN,RatingExt.thisN,RatingExt.thisIndex,InstrBkg.started,InstrBkg.stopped,TagFig.started,TagFig.stopped,InstrKeyResp.keys,InstrKeyResp.rt,InstrKeyResp.started,InstrKeyResp.stopped,precondBkg.started,precondBkg.stopped,imagePreCond.started,imagePreCond.stopped,BlankBkg.started,BlankBkg.stopped,Bkg.started,Bkg.stopped,image.started,image.stopped,Scale.response,Scale.rt,Scale.started,Scale.stopped,InstrBkg2.started,InstrBkg2.stopped,TagFig2.started,TagFig2.stopped,key_resp.keys,key_resp.rt,key_resp.started,key_resp.stopped,CSBkg.started,CSBkg.stopped,CS_image.started,CS_image.stopped,UCSBkg.started,UCSBkg.stopped,UCS_image.started,UCS_image.stopped,sound_1.started,sound_1.stopped,InstrBkg3.started,InstrBkg3.stopped,TagFig3.started,TagFig3.stopped,key_resp_3.keys,key_resp_3.rt,key_resp_3.started,key_resp_3.stopped,ExtBkg.started,ExtBkg.stopped,Ext_image.started,Ext_image.stopped,participant,session,date,expName,psychopyVersion,frameRate,
PreCondition\CS-1.BMP,0.4,,,,,,0,0,0,0,0,0,0,9,,,,,,,,,,,,,,,,,,,,,,,,,33.3420987999998,None,33.3420987999998,None,space,2.653661199961789,33.3420987999998,None,36.043874000024516,None,36.043874000024516,None,37.033258000039496,None,,,,,,,,,,,,,,,,,,,,,,,,,,,,,,,,,,,,,,,hyz1104,001,2021_Nov_02_1543,FigureTest,2021.2.1,59.90886663557054,
PreCondition\CS+1.BMP,-0.1,,,,,,0,0,0,0,0,1,1,4,,,,,,,,,,,,,,,,,,,,,,,,,,,,,,,,,38.072871900047176,None,38.072871900047176,39.065237000002526,39.08203450002475,None,,,,,,,,,,,,,,,,,,,,,,,,,,,,,,,,,,,,,,,hyz1104,001,2021_Nov_02_1543,FigureTest,2021.2.1,59.90886663557054,
PreCondition\CS-1.BMP,0.4,,,,,,0,0,0,0,0,2,2,8,,,,,,,,,,,,,,,,,,,,,,,,,,,,,,,,,40.23558229999617,None,40.23558229999617,None,41.23165380000137,None,,,,,,,,,,,,,,,,,,,,,,,,,,,,,,,,,,,,,,,hyz1104,001,2021_Nov_02_1543,FigureTest,2021.2.1,59.90886663557054,
PreCondition\CS-1.BMP,0.4,,,,,,0,0,0,0,0,3,3,6,,,,,,,,,,,,,,,,,,,,,,,,,,,,,,,,,42.43183020001743,None,42.43183020001743,43.414787400048226,43.431539300014265,None,,,,,,,,,,,,,,,,,,,,,,,,,,,,,,,,,,,,,,,hyz1104,001,2021_Nov_02_1543,FigureTest,2021.2.1,59.90886663557054,
PreCondition\CS-1.BMP,0.4,,,,,,0,0,0,0,0,4,4,7,,,,,,,,,,,,,,,,,,,,,,,,,,,,,,,,,44.54783380002482,None,44.54783380002482,45.53115570003865,45.548145700013265,None,,,,,,,,,,,,,,,,,,,,,,,,,,,,,,,,,,,,,,,hyz1104,001,2021_Nov_02_1543,FigureTest,2021.2.1,59.90886663557054,
PreCondition\CS+1.BMP,-0.1,,,,,,0,0,0,0,0,5,5,0,,,,,,,,,,,,,,,,,,,,,,,,,,,,,,,,,46.64414390001912,None,46.64414390001912,None,47.63278760004323,None,,,,,,,,,,,,,,,,,,,,,,,,,,,,,,,,,,,,,,,hyz1104,001,2021_Nov_02_1543,FigureTest,2021.2.1,59.90886663557054,
PreCondition\CS+1.BMP,-0.1,,,,,,0,0,0,0,0,6,6,2,,,,,,,,,,,,,,,,,,,,,,,,,,,,,,,,,48.84159710002132,None,48.84159710002132,49.831096500041895,49.849966900015716,None,,,,,,,,,,,,,,,,,,,,,,,,,,,,,,,,,,,,,,,hyz1104,001,2021_Nov_02_1543,FigureTest,2021.2.1,59.90886663557054,
PreCondition\CS-1.BMP,0.4,,,,,,0,0,0,0,0,7,7,5,,,,,,,,,,,,,,,,,,,,,,,,,,,,,,,,,51.01817460003076,None,51.01817460003076,None,52.01427710003918,None,,,,,,,,,,,,,,,,,,,,,,,,,,,,,,,,,,,,,,,hyz1104,001,2021_Nov_02_1543,FigureTest,2021.2.1,59.90886663557054,
PreCondition\CS+1.BMP,-0.1,,,,,,0,0,0,0,0,8,8,1,,,,,,,,,,,,,,,,,,,,,,,,,,,,,,,,,53.20060860004742,None,53.20060860004742,None,54.197320400038734,None,,,,,,,,,,,,,,,,,,,,,,,,,,,,,,,,,,,,,,,hyz1104,001,2021_Nov_02_1543,FigureTest,2021.2.1,59.90886663557054,
PreCondition\CS+1.BMP,-0.1,,,,,,0,0,0,0,0,9,9,3,,,,,,,,,,,,,,,,,,,,,,,,,,,,,,,,,55.313561300048605,None,55.313561300048605,56.29758000001311,56.31376620003721,None,,,,,,,,,,,,,,,,,,,,,,,,,,,,,,,,,,,,,,,hyz1104,001,2021_Nov_02_1543,FigureTest,2021.2.1,59.90886663557054,
,-0.1,Rating\ratingCS+1.png,,,,,0,0,0,0,,,,,0,0,0,0,,,,,,,,,,,,,,,,,,,,,,,,,,,,,,,,,,,61.65657630003989,None,61.65657630003989,None,2.1171875,2.6215945000294596,61.65657630003989,None,,,,,,,,,,,,,,,,,,,,,,,,,,,,,,,hyz1104,001,2021_Nov_02_1543,FigureTest,2021.2.1,59.90886663557054,
,0.4,Rating\ratingCS-1.png,,,,,0,0,0,0,,,,,0,1,1,1,,,,,,,,,,,,,,,,,,,,,,,,,,,,,,,,,,,65.61385170003632,None,65.61385170003632,None,2.046875,0.9366828999482095,65.61385170003632,None,,,,,,,,,,,,,,,,,,,,,,,,,,,,,,,hyz1104,001,2021_Nov_02_1543,FigureTest,2021.2.1,59.90886663557054,
,0.4,,Condition\CS-1.BMP,Condition\black.PNG,Sound\silent.wav,,0,0,0,0,,,,,,,,,0,0,0,21,,,,,,,,,,,,,,,,,,,,,,,,,,,,,77.04960369999753,None,,,,,,,,,66.51518370001577,None,66.51518370001577,None,space,5.956742400012445,66.51518370001577,None,72.53921700001229,None,72.53921700001229,None,None,None,None,None,None,None,,,,,,,,,,,,,hyz1104,001,2021_Nov_02_1543,FigureTest,2021.2.1,59.90886663557054,
,0.9,,Condition\CS+1.BMP,Condition\UCS1.BMP,Sound\scream1.wav,,0,0,0,0,,,,,,,,,0,1,1,5,,,,,,,,,,,,,,,,,,,,,,,,,,,,,80.29269380000187,None,,,,,,,,,,,,,,,,,78.2454855000251,None,78.2454855000251,None,79.35781420004787,None,79.35781420004787,None,79.36700584003701,None,,,,,,,,,,,,,hyz1104,001,2021_Nov_02_1543,FigureTest,2021.2.1,59.90886663557054,
,0.9,,Condition\CS+1.BMP,Condition\UCS1.BMP,Sound\scream1.wav,,0,0,0,0,,,,,,,,,0,2,2,14,,,,,,,,,,,,,,,,,,,,,,,,,,,,,83.56549040001119,None,,,,,,,,,,,,,,,,,81.47705129999667,None,81.47705129999667,None,82.4864200000302,None,82.4864200000302,None,82.49379156002541,None,,,,,,,,,,,,,hyz1104,001,2021_Nov_02_1543,FigureTest,2021.2.1,59.90886663557054,
,0.9,,Condition\CS+1.BMP,Condition\UCS1.BMP,Sound\scream1.wav,,0,0,0,0,,,,,,,,,0,3,3,10,,,,,,,,,,,,,,,,,,,,,,,,,,,,,86.91124580003088,None,,,,,,,,,,,,,,,,,84.81990410003345,None,84.81990410003345,None,85.84366760001285,None,85.84366760001285,None,85.8455812600092,None,,,,,,,,,,,,,hyz1104,001,2021_Nov_02_1543,FigureTest,2021.2.1,59.90886663557054,
,0.4,,Condition\CS-1.BMP,Condition\black.PNG,Sound\silent.wav,,0,0,0,0,,,,,,,,,0,4,4,18,,,,,,,,,,,,,,,,,,,,,,,,,,,,,92.51311140001053,None,,,,,,,,,,,,,,,,,87.97824790002778,None,87.97824790002778,None,None,None,None,None,None,None,,,,,,,,,,,,,hyz1104,001,2021_Nov_02_1543,FigureTest,2021.2.1,59.90886663557054,
,0.9,,Condition\CS+1.BMP,Condition\UCS1.BMP,Sound\scream1.wav,,0,0,0,0,,,,,,,,,0,5,5,12,,,,,,,,,,,,,,,,,,,,,,,,,,,,,95.79497580003226,None,,,,,,,,,,,,,,,,,93.77578630001517,None,93.77578630001517,None,94.90305890003219,None,94.90305890003219,None,94.91125917005702,None,,,,,,,,,,,,,hyz1104,001,2021_Nov_02_1543,FigureTest,2021.2.1,59.90886663557054,
,-0.1,,Condition\CS+1.BMP,Condition\black.PNG,Sound\silent.wav,,0,0,0,0,,,,,,,,,0,6,6,0,,,,,,,,,,,,,,,,,,,,,,,,,,,,,101.37233660003403,None,,,,,,,,,,,,,,,,,96.84663820004789,None,96.84663820004789,None,None,None,None,None,None,None,,,,,,,,,,,,,hyz1104,001,2021_Nov_02_1543,FigureTest,2021.2.1,59.90886663557054,
,0.4,,Condition\CS-1.BMP,Condition\black.PNG,Sound\silent.wav,,0,0,0,0,,,,,,,,,0,7,7,25,,,,,,,,,,,,,,,,,,,,,,,,,,,,,104.71651800000109,None,,,,,,,,,,,,,,,,,102.66053260001354,None,102.66053260001354,None,104.67910670000128,None,104.67910670000128,None,104.62604874026728,None,,,,,,,,,,,,,hyz1104,001,2021_Nov_02_1543,FigureTest,2021.2.1,59.90886663557054,
,0.9,,Condition\CS+1.BMP,Condition\UCS1.BMP,Sound\scream1.wav,,0,0,0,0,,,,,,,,,0,8,8,9,,,,,,,,,,,,,,,,,,,,,,,,,,,,,107.82839450001484,None,,,,,,,,,,,,,,,,,105.78877770004328,None,105.78877770004328,None,106.89082670002244,None,106.89082670002244,None,106.90147034006658,None,,,,,,,,,,,,,hyz1104,001,2021_Nov_02_1543,FigureTest,2021.2.1,59.90886663557054,
,0.4,,Condition\CS-1.BMP,Condition\black.PNG,Sound\silent.wav,,0,0,0,0,,,,,,,,,0,9,9,22,,,,,,,,,,,,,,,,,,,,,,,,,,,,,113.55806480004685,None,,,,,,,,,,,,,,,,,109.0195279000327,None,109.0195279000327,None,None,None,None,None,None,None,,,,,,,,,,,,,hyz1104,001,2021_Nov_02_1543,FigureTest,2021.2.1,59.90886663557054,
,0.4,,Condition\CS-1.BMP,Condition\black.PNG,Sound\silent.wav,,0,0,0,0,,,,,,,,,0,10,10,26,,,,,,,,,,,,,,,,,,,,,,,,,,,,,116.83328240003902,None,,,,,,,,,,,,,,,,,114.77628760004882,None,114.77628760004882,None,116.81048470002133,None,116.81048470002133,None,116.74613304026424,None,,,,,,,,,,,,,hyz1104,001,2021_Nov_02_1543,FigureTest,2021.2.1,59.90886663557054,
,-0.1,,Condition\CS+1.BMP,Condition\black.PNG,Sound\silent.wav,,0,0,0,0,,,,,,,,,0,11,11,2,,,,,,,,,,,,,,,,,,,,,,,,,,,,,120.23735980002675,None,,,,,,,,,,,,,,,,,118.20793850003975,None,118.20793850003975,None,None,None,None,None,None,None,,,,,,,,,,,,,hyz1104,001,2021_Nov_02_1543,FigureTest,2021.2.1,59.90886663557054,
,0.4,,Condition\CS-1.BMP,Condition\black.PNG,Sound\silent.wav,,0,0,0,0,,,,,,,,,0,12,12,17,,,,,,,,,,,,,,,,,,,,,,,,,,,,,123.55761210003402,None,,,,,,,,,,,,,,,,,121.44398040004307,None,121.44398040004307,None,123.4862288000295,None,123.4862288000295,None,123.41184387026006,None,,,,,,,,,,,,,hyz1104,001,2021_Nov_02_1543,FigureTest,2021.2.1,59.90886663557054,
,0.4,,Condition\CS-1.BMP,Condition\black.PNG,Sound\silent.wav,,0,0,0,0,,,,,,,,,0,13,13,27,,,,,,,,,,,,,,,,,,,,,,,,,,,,,126.73847070004558,None,,,,,,,,,,,,,,,,,124.67437510000309,None,124.67437510000309,None,126.70947330002673,None,126.70947330002673,None,126.64795287025045,None,,,,,,,,,,,,,hyz1104,001,2021_Nov_02_1543,FigureTest,2021.2.1,59.90886663557054,
,0.4,,Condition\CS-1.BMP,Condition\black.PNG,Sound\silent.wav,,0,0,0,0,,,,,,,,,0,14,14,28,,,,,,,,,,,,,,,,,,,,,,,,,,,,,130.13348449999467,None,,,,,,,,,,,,,,,,,128.09164650004823,None,128.09164650004823,None,130.11333570000716,None,130.11333570000716,None,130.06348937029836,None,,,,,,,,,,,,,hyz1104,001,2021_Nov_02_1543,FigureTest,2021.2.1,59.90886663557054,
,0.9,,Condition\CS+1.BMP,Condition\UCS1.BMP,Sound\scream1.wav,,0,0,0,0,,,,,,,,,0,15,15,13,,,,,,,,,,,,,,,,,,,,,,,,,,,,,133.39903220004635,None,,,,,,,,,,,,,,,,,131.35762840003008,None,131.35762840003008,None,132.47048440005165,None,132.47048440005165,None,132.46679351006753,None,,,,,,,,,,,,,hyz1104,001,2021_Nov_02_1543,FigureTest,2021.2.1,59.90886663557054,
,0.9,,Condition\CS+1.BMP,Condition\UCS1.BMP,Sound\scream1.wav,,0,0,0,0,,,,,,,,,0,16,16,8,,,,,,,,,,,,,,,,,,,,,,,,,,,,,136.54845950001618,None,,,,,,,,,,,,,,,,,134.52423900004942,None,134.52423900004942,None,135.54696070001228,None,135.54696070001228,None,135.55634406001775,None,,,,,,,,,,,,,hyz1104,001,2021_Nov_02_1543,FigureTest,2021.2.1,59.90886663557054,
,0.4,,Condition\CS-1.BMP,Condition\black.PNG,Sound\silent.wav,,0,0,0,0,,,,,,,,,0,17,17,23,,,,,,,,,,,,,,,,,,,,,,,,,,,,,142.28680500003975,None,,,,,,,,,,,,,,,,,137.7470283000148,None,137.7470283000148,None,None,None,None,None,None,None,,,,,,,,,,,,,hyz1104,001,2021_Nov_02_1543,FigureTest,2021.2.1,59.90886663557054,
,0.4,,Condition\CS-1.BMP,Condition\black.PNG,Sound\silent.wav,,0,0,0,0,,,,,,,,,0,18,18,20,,,,,,,,,,,,,,,,,,,,,,,,,,,,,145.4865571000264,None,,,,,,,,,,,,,,,,,143.42071239999495,None,143.42071239999495,None,145.44101680000313,None,145.44101680000313,None,145.3768091402948,None,,,,,,,,,,,,,hyz1104,001,2021_Nov_02_1543,FigureTest,2021.2.1,59.90886663557054,
,0.9,,Condition\CS+1.BMP,Condition\UCS1.BMP,Sound\scream1.wav,,0,0,0,0,,,,,,,,,0,19,19,4,,,,,,,,,,,,,,,,,,,,,,,,,,,,,148.55770330002997,None,,,,,,,,,,,,,,,,,146.55342230002861,None,146.55342230002861,None,147.67181820003316,None,147.67181820003316,None,147.67960934006842,None,,,,,,,,,,,,,hyz1104,001,2021_Nov_02_1543,FigureTest,2021.2.1,59.90886663557054,
,0.4,,Condition\CS-1.BMP,Condition\black.PNG,Sound\silent.wav,,0,0,0,0,,,,,,,,,0,20,20,19,,,,,,,,,,,,,,,,,,,,,,,,,,,,,154.32719790004194,None,,,,,,,,,,,,,,,,,149.78883309999947,None,149.78883309999947,None,None,None,None,None,None,None,,,,,,,,,,,,,hyz1104,001,2021_Nov_02_1543,FigureTest,2021.2.1,59.90886663557054,
,-0.1,,Condition\CS+1.BMP,Condition\black.PNG,Sound\silent.wav,,0,0,0,0,,,,,,,,,0,21,21,1,,,,,,,,,,,,,,,,,,,,,,,,,,,,,157.40593240002636,None,,,,,,,,,,,,,,,,,155.3867573000025,None,155.3867573000025,None,157.38646140001947,None,157.38646140001947,None,157.332386610267,None,,,,,,,,,,,,,hyz1104,001,2021_Nov_02_1543,FigureTest,2021.2.1,59.90886663557054,
,0.9,,Condition\CS+1.BMP,Condition\UCS1.BMP,Sound\scream1.wav,,0,0,0,0,,,,,,,,,0,22,22,3,,,,,,,,,,,,,,,,,,,,,,,,,,,,,160.6342016000417,None,,,,,,,,,,,,,,,,,158.60607500001788,None,158.60607500001788,None,159.71364360000007,None,159.71364360000007,None,159.72341034006095,None,,,,,,,,,,,,,hyz1104,001,2021_Nov_02_1543,FigureTest,2021.2.1,59.90886663557054,
,0.4,,Condition\CS-1.BMP,Condition\black.PNG,Sound\silent.wav,,0,0,0,0,,,,,,,,,0,23,23,29,,,,,,,,,,,,,,,,,,,,,,,,,,,,,166.4245637000422,None,,,,,,,,,,,,,,,,,161.90636560000712,None,161.90636560000712,None,None,None,None,None,None,None,,,,,,,,,,,,,hyz1104,001,2021_Nov_02_1543,FigureTest,2021.2.1,59.90886663557054,
,0.9,,Condition\CS+1.BMP,Condition\UCS1.BMP,Sound\scream1.wav,,0,0,0,0,,,,,,,,,0,24,24,6,,,,,,,,,,,,,,,,,,,,,,,,,,,,,169.4838260000106,None,,,,,,,,,,,,,,,,,167.46767980000004,None,167.46767980000004,None,168.59151430003112,None,168.59151430003112,None,168.59299694005168,None,,,,,,,,,,,,,hyz1104,001,2021_Nov_02_1543,FigureTest,2021.2.1,59.90886663557054,
,0.9,,Condition\CS+1.BMP,Condition\UCS1.BMP,Sound\scream1.wav,,0,0,0,0,,,,,,,,,0,25,25,11,,,,,,,,,,,,,,,,,,,,,,,,,,,,,172.55926460004412,None,,,,,,,,,,,,,,,,,170.5338903000229,None,170.5338903000229,None,171.5518074000138,None,171.5518074000138,None,171.56181216003608,None,,,,,,,,,,,,,hyz1104,001,2021_Nov_02_1543,FigureTest,2021.2.1,59.90886663557054,
,0.9,,Condition\CS+1.BMP,Condition\UCS1.BMP,Sound\scream1.wav,,0,0,0,0,,,,,,,,,0,26,26,7,,,,,,,,,,,,,,,,,,,,,,,,,,,,,175.6346315999981,None,,,,,,,,,,,,,,,,,173.59442440001294,None,173.59442440001294,None,174.6010321000358,None,174.6010321000358,None,174.6105871600099,None,,,,,,,,,,,,,hyz1104,001,2021_Nov_02_1543,FigureTest,2021.2.1,59.90886663557054,
,0.4,,Condition\CS-1.BMP,Condition\black.PNG,Sound\silent.wav,,0,0,0,0,,,,,,,,,0,27,27,15,,,,,,,,,,,,,,,,,,,,,,,,,,,,,181.30448170000454,None,,,,,,,,,,,,,,,,,176.7870438999962,None,176.7870438999962,None,None,None,None,None,None,None,,,,,,,,,,,,,hyz1104,001,2021_Nov_02_1543,FigureTest,2021.2.1,59.90886663557054,
,0.4,,Condition\CS-1.BMP,Condition\black.PNG,Sound\silent.wav,,0,0,0,0,,,,,,,,,0,28,28,16,,,,,,,,,,,,,,,,,,,,,,,,,,,,,184.55884800001513,None,,,,,,,,,,,,,,,,,182.4398860000074,None,182.4398860000074,None,184.46924150001723,None,184.46924150001723,None,184.39251811027646,None,,,,,,,,,,,,,hyz1104,001,2021_Nov_02_1543,FigureTest,2021.2.1,59.90886663557054,
,0.4,,Condition\CS-1.BMP,Condition\black.PNG,Sound\silent.wav,,0,0,0,0,,,,,,,,,0,29,29,24,,,,,,,,,,,,,,,,,,,,,,,,,,,,,187.71239990001777,None,,,,,,,,,,,,,,,,,185.64109500002814,None,185.64109500002814,None,187.65854870004114,None,187.65854870004114,None,187.59542754028226,None,,,,,,,,,,,,,hyz1104,001,2021_Nov_02_1543,FigureTest,2021.2.1,59.90886663557054,
,-0.1,Rating\ratingCS+1.png,,,,,0,0,0,0,,,,,,,,,,,,,0,0,0,0,,,,,,,,,,,,,,,,,,,,,,,,,,,190.3480314000044,None,190.3480314000044,None,3.2734374999999996,3.6723631999921054,190.3480314000044,None,,,,,,,,,,,,,,,,,,,,,,,,,,,,,,,hyz1104,001,2021_Nov_02_1543,FigureTest,2021.2.1,59.90886663557054,
,0.4,Rating\ratingCS-1.png,,,,,0,0,0,0,,,,,,,,,,,,,0,1,1,1,,,,,,,,,,,,,,,,,,,,,,,,,,,195.50186790002044,None,195.50186790002044,None,1.8359374999999998,1.1919322999892756,195.50186790002044,None,,,,,,,,,,,,,,,,,,,,,,,,,,,,,,,hyz1104,001,2021_Nov_02_1543,FigureTest,2021.2.1,59.90886663557054,
,,,,,,,0,0,0,0,,,,,,,,,,,,,,,,,,,,,,,,,,,,,,,,,,,,,,,,,,,,,,,,,,,,,,,,,,,,,,,,,,,,,,,,,,,,,,,,,hyz1104,001,2021_Nov_02_1543,FigureTest,2021.2.1,59.90886663557054,
PreCondition\CS-2.BMP,0.4,,,,,,1,0,1,0,0,0,0,6,,,,,,,,,,,,,,,,,,,,,,,,,196.6674909000285,None,196.6674909000285,None,space,1.789139200001955,196.6674909000285,None,198.48198900005082,None,198.48198900005082,199.47767490003025,199.49318020005012,None,,,,,,,,,,,,,,,,,,,,,,,,,,,,,,,,,,,,,,,hyz1104,001,2021_Nov_02_1543,FigureTest,2021.2.1,59.90886663557054,
PreCondition\CS-2.BMP,0.4,,,,,,1,0,1,0,0,1,1,8,,,,,,,,,,,,,,,,,,,,,,,,,,,,,,,,,200.6595801000367,None,200.6595801000367,None,201.65931740001542,None,,,,,,,,,,,,,,,,,,,,,,,,,,,,,,,,,,,,,,,hyz1104,001,2021_Nov_02_1543,FigureTest,2021.2.1,59.90886663557054,
PreCondition\CS+2.BMP,-0.1,,,,,,1,0,1,0,0,2,2,1,,,,,,,,,,,,,,,,,,,,,,,,,,,,,,,,,202.6917589000077,None,202.6917589000077,203.6751678000437,203.69169080001302,None,,,,,,,,,,,,,,,,,,,,,,,,,,,,,,,,,,,,,,,hyz1104,001,2021_Nov_02_1543,FigureTest,2021.2.1,59.90886663557054,
PreCondition\CS+2.BMP,-0.1,,,,,,1,0,1,0,0,3,3,0,,,,,,,,,,,,,,,,,,,,,,,,,,,,,,,,,204.90742970001884,None,204.90742970001884,205.89101900003152,205.9076513000182,None,,,,,,,,,,,,,,,,,,,,,,,,,,,,,,,,,,,,,,,hyz1104,001,2021_Nov_02_1543,FigureTest,2021.2.1,59.90886663557054,
PreCondition\CS+2.BMP,-0.1,,,,,,1,0,1,0,0,4,4,4,,,,,,,,,,,,,,,,,,,,,,,,,,,,,,,,,207.13483799999813,None,207.13483799999813,208.12532980000833,208.14159920002567,None,,,,,,,,,,,,,,,,,,,,,,,,,,,,,,,,,,,,,,,hyz1104,001,2021_Nov_02_1543,FigureTest,2021.2.1,59.90886663557054,
PreCondition\CS-2.BMP,0.4,,,,,,1,0,1,0,0,5,5,5,,,,,,,,,,,,,,,,,,,,,,,,,,,,,,,,,209.2799820000073,None,209.2799820000073,210.27477430005092,210.291128700017,None,,,,,,,,,,,,,,,,,,,,,,,,,,,,,,,,,,,,,,,hyz1104,001,2021_Nov_02_1543,FigureTest,2021.2.1,59.90886663557054,
PreCondition\CS+2.BMP,-0.1,,,,,,1,0,1,0,0,6,6,2,,,,,,,,,,,,,,,,,,,,,,,,,,,,,,,,,211.457438500016,None,211.457438500016,212.44077169999946,212.45729470002698,None,,,,,,,,,,,,,,,,,,,,,,,,,,,,,,,,,,,,,,,hyz1104,001,2021_Nov_02_1543,FigureTest,2021.2.1,59.90886663557054,
PreCondition\CS-2.BMP,0.4,,,,,,1,0,1,0,0,7,7,9,,,,,,,,,,,,,,,,,,,,,,,,,,,,,,,,,213.60696950001875,None,213.60696950001875,214.59230880002724,214.60967990005156,None,,,,,,,,,,,,,,,,,,,,,,,,,,,,,,,,,,,,,,,hyz1104,001,2021_Nov_02_1543,FigureTest,2021.2.1,59.90886663557054,
PreCondition\CS-2.BMP,0.4,,,,,,1,0,1,0,0,8,8,7,,,,,,,,,,,,,,,,,,,,,,,,,,,,,,,,,215.9448304999969,None,215.9448304999969,216.94047339999815,216.95715670002392,None,,,,,,,,,,,,,,,,,,,,,,,,,,,,,,,,,,,,,,,hyz1104,001,2021_Nov_02_1543,FigureTest,2021.2.1,59.90886663557054,
PreCondition\CS+2.BMP,-0.1,,,,,,1,0,1,0,0,9,9,3,,,,,,,,,,,,,,,,,,,,,,,,,,,,,,,,,218.1902115000412,None,218.1902115000412,219.17569030000595,219.19156470004236,None,,,,,,,,,,,,,,,,,,,,,,,,,,,,,,,,,,,,,,,hyz1104,001,2021_Nov_02_1543,FigureTest,2021.2.1,59.90886663557054,
,-0.1,Rating\ratingCS+2.png,,,,,1,0,1,0,,,,,0,0,0,0,,,,,,,,,,,,,,,,,,,,,,,,,,,,,,,,,,,221.8194740000181,None,221.8194740000181,None,1.7812499999999998,11.247340600006282,221.8194740000181,None,,,,,,,,,,,,,,,,,,,,,,,,,,,,,,,hyz1104,001,2021_Nov_02_1543,FigureTest,2021.2.1,59.90886663557054,
,0.4,Rating\ratingCS-2.png,,,,,1,0,1,0,,,,,0,1,1,1,,,,,,,,,,,,,,,,,,,,,,,,,,,,,,,,,,,234.65080800000578,None,234.65080800000578,None,1.5390625000000004,0.879780400020536,234.65080800000578,None,,,,,,,,,,,,,,,,,,,,,,,,,,,,,,,hyz1104,001,2021_Nov_02_1543,FigureTest,2021.2.1,59.90886663557054,
,0.4,,Condition\CS-2.BMP,Condition\black.PNG,Sound\silent.wav,,1,0,1,0,,,,,,,,,0,0,0,20,,,,,,,,,,,,,,,,,,,,,,,,,,,,,254.5620739000151,None,,,,,,,,,235.36994600004982,None,235.36994600004982,None,space,17.126377500011586,235.36994600004982,None,252.53255420003552,None,252.53255420003552,None,254.53631230001338,None,254.53631230001338,None,254.46779791026495,None,,,,,,,,,,,,,hyz1104,001,2021_Nov_02_1543,FigureTest,2021.2.1,59.90886663557054,
,-0.1,,Condition\CS+2.BMP,Condition\black.PNG,Sound\silent.wav,,1,0,1,0,,,,,,,,,0,1,1,0,,,,,,,,,,,,,,,,,,,,,,,,,,,,,257.94011100003263,None,,,,,,,,,,,,,,,,,255.8764680000022,None,255.8764680000022,None,None,None,None,None,None,None,,,,,,,,,,,,,hyz1104,001,2021_Nov_02_1543,FigureTest,2021.2.1,59.90886663557054,
,0.9,,Condition\CS+2.BMP,Condition\UCS2.BMP,Sound\scream1.wav,,1,0,1,0,,,,,,,,,0,2,2,8,,,,,,,,,,,,,,,,,,,,,,,,,,,,,260.9715818000259,None,,,,,,,,,,,,,,,,,258.9437775000115,None,258.9437775000115,None,260.04766560002463,None,260.04766560002463,None,260.0441714100249,None,,,,,,,,,,,,,hyz1104,001,2021_Nov_02_1543,FigureTest,2021.2.1,59.90886663557054,
,0.9,,Condition\CS+2.BMP,Condition\UCS2.BMP,Sound\scream1.wav,,1,0,1,0,,,,,,,,,0,3,3,9,,,,,,,,,,,,,,,,,,,,,,,,,,,,,264.0481552000274,None,,,,,,,,,,,,,,,,,262.0175352000515,None,262.0175352000515,None,263.03145940002287,None,263.03145940002287,None,263.03470886000434,None,,,,,,,,,,,,,hyz1104,001,2021_Nov_02_1543,FigureTest,2021.2.1,59.90886663557054,
,0.4,,Condition\CS-2.BMP,Condition\black.PNG,Sound\silent.wav,,1,0,1,0,,,,,,,,,0,4,4,26,,,,,,,,,,,,,,,,,,,,,,,,,,,,,269.7095169000095,None,,,,,,,,,,,,,,,,,265.16845789999934,None,265.16845789999934,None,None,None,None,None,None,None,,,,,,,,,,,,,hyz1104,001,2021_Nov_02_1543,FigureTest,2021.2.1,59.90886663557054,
,0.4,,Condition\CS-2.BMP,Condition\black.PNG,Sound\silent.wav,,1,0,1,0,,,,,,,,,0,5,5,21,,,,,,,,,,,,,,,,,,,,,,,,,,,,,272.9053576000151,None,,,,,,,,,,,,,,,,,270.8209254000103,None,270.8209254000103,None,272.83358920004684,None,272.83358920004684,None,272.79480647029703,None,,,,,,,,,,,,,hyz1104,001,2021_Nov_02_1543,FigureTest,2021.2.1,59.90886663557054,
,0.4,,Condition\CS-2.BMP,Condition\black.PNG,Sound\silent.wav,,1,0,1,0,,,,,,,,,0,6,6,19,,,,,,,,,,,,,,,,,,,,,,,,,,,,,276.056264200015,None,,,,,,,,,,,,,,,,,274.03701530001126,None,274.03701530001126,None,276.0169176000054,None,276.0169176000054,None,275.9752923102875,None,,,,,,,,,,,,,hyz1104,001,2021_Nov_02_1543,FigureTest,2021.2.1,59.90886663557054,
,0.9,,Condition\CS+2.BMP,Condition\UCS2.BMP,Sound\scream1.wav,,1,0,1,0,,,,,,,,,0,7,7,11,,,,,,,,,,,,,,,,,,,,,,,,,,,,,279.28804430004675,None,,,,,,,,,,,,,,,,,277.2375273000216,None,277.2375273000216,None,278.3477455000393,None,278.3477455000393,None,278.354442240065,None,,,,,,,,,,,,,hyz1104,001,2021_Nov_02_1543,FigureTest,2021.2.1,59.90886663557054,
,0.4,,Condition\CS-2.BMP,Condition\black.PNG,Sound\silent.wav,,1,0,1,0,,,,,,,,,0,8,8,17,,,,,,,,,,,,,,,,,,,,,,,,,,,,,284.99265520001063,None,,,,,,,,,,,,,,,,,280.4505862000515,None,280.4505862000515,None,None,None,None,None,None,None,,,,,,,,,,,,,hyz1104,001,2021_Nov_02_1543,FigureTest,2021.2.1,59.90886663557054,
,0.4,,Condition\CS-2.BMP,Condition\black.PNG,Sound\silent.wav,,1,0,1,0,,,,,,,,,0,9,9,23,,,,,,,,,,,,,,,,,,,,,,,,,,,,,288.29734240000835,None,,,,,,,,,,,,,,,,,286.2438159000012,None,286.2438159000012,None,288.2753891000175,None,288.2753891000175,None,288.19889774025654,None,,,,,,,,,,,,,hyz1104,001,2021_Nov_02_1543,FigureTest,2021.2.1,59.90886663557054,
,0.4,,Condition\CS-2.BMP,Condition\black.PNG,Sound\silent.wav,,1,0,1,0,,,,,,,,,0,10,10,22,,,,,,,,,,,,,,,,,,,,,,,,,,,,,291.4157897999976,None,,,,,,,,,,,,,,,,,289.3793732000049,None,289.3793732000049,None,291.39555050001945,None,291.39555050001945,None,291.33482114025395,None,,,,,,,,,,,,,hyz1104,001,2021_Nov_02_1543,FigureTest,2021.2.1,59.90886663557054,
,0.9,,Condition\CS+2.BMP,Condition\UCS2.BMP,Sound\scream1.wav,,1,0,1,0,,,,,,,,,0,11,11,6,,,,,,,,,,,,,,,,,,,,,,,,,,,,,294.6357009000494,None,,,,,,,,,,,,,,,,,292.59847290004836,None,292.59847290004836,None,293.7055312000448,None,293.7055312000448,None,293.7164580400335,None,,,,,,,,,,,,,hyz1104,001,2021_Nov_02_1543,FigureTest,2021.2.1,59.90886663557054,
,0.4,,Condition\CS-2.BMP,Condition\black.PNG,Sound\silent.wav,,1,0,1,0,,,,,,,,,0,12,12,15,,,,,,,,,,,,,,,,,,,,,,,,,,,,,300.2932676000055,None,,,,,,,,,,,,,,,,,295.7860409000423,None,295.7860409000423,None,None,None,None,None,None,None,,,,,,,,,,,,,hyz1104,001,2021_Nov_02_1543,FigureTest,2021.2.1,59.90886663557054,
,0.4,,Condition\CS-2.BMP,Condition\black.PNG,Sound\silent.wav,,1,0,1,0,,,,,,,,,0,13,13,16,,,,,,,,,,,,,,,,,,,,,,,,,,,,,303.55740839999635,None,,,,,,,,,,,,,,,,,301.47493290004786,None,301.47493290004786,None,303.5024664000375,None,303.5024664000375,None,303.42997914026495,None,,,,,,,,,,,,,hyz1104,001,2021_Nov_02_1543,FigureTest,2021.2.1,59.90886663557054,
,0.4,,Condition\CS-2.BMP,Condition\black.PNG,Sound\silent.wav,,1,0,1,0,,,,,,,,,0,14,14,25,,,,,,,,,,,,,,,,,,,,,,,,,,,,,306.78868460003287,None,,,,,,,,,,,,,,,,,304.70901300001424,None,304.70901300001424,None,306.74082030000864,None,306.74082030000864,None,306.66465474028377,None,,,,,,,,,,,,,hyz1104,001,2021_Nov_02_1543,FigureTest,2021.2.1,59.90886663557054,
,-0.1,,Condition\CS+2.BMP,Condition\black.PNG,Sound\silent.wav,,1,0,1,0,,,,,,,,,0,15,15,2,,,,,,,,,,,,,,,,,,,,,,,,,,,,,310.13715020002564,None,,,,,,,,,,,,,,,,,308.0787796000368,None,308.0787796000368,None,310.0989052000223,None,310.0989052000223,None,310.0337777402951,None,,,,,,,,,,,,,hyz1104,001,2021_Nov_02_1543,FigureTest,2021.2.1,59.90886663557054,
,0.9,,Condition\CS+2.BMP,Condition\UCS2.BMP,Sound\scream1.wav,,1,0,1,0,,,,,,,,,0,16,16,10,,,,,,,,,,,,,,,,,,,,,,,,,,,,,313.20933969999896,None,,,,,,,,,,,,,,,,,311.20340380002744,None,311.20340380002744,None,312.32294440001715,None,312.32294440001715,None,312.3229433400324,None,,,,,,,,,,,,,hyz1104,001,2021_Nov_02_1543,FigureTest,2021.2.1,59.90886663557054,
,0.9,,Condition\CS+2.BMP,Condition\UCS2.BMP,Sound\scream1.wav,,1,0,1,0,,,,,,,,,0,17,17,4,,,,,,,,,,,,,,,,,,,,,,,,,,,,,316.4014835000271,None,,,,,,,,,,,,,,,,,314.3595222000149,None,314.3595222000149,None,315.3776944000274,None,315.3776944000274,None,315.377273260057,None,,,,,,,,,,,,,hyz1104,001,2021_Nov_02_1543,FigureTest,2021.2.1,59.90886663557054,
,0.9,,Condition\CS+2.BMP,Condition\UCS2.BMP,Sound\scream1.wav,,1,0,1,0,,,,,,,,,0,18,18,7,,,,,,,,,,,,,,,,,,,,,,,,,,,,,319.7103405999951,None,,,,,,,,,,,,,,,,,317.6425795000396,None,317.6425795000396,None,318.6606060000486,None,318.6606060000486,None,318.66028296001025,None,,,,,,,,,,,,,hyz1104,001,2021_Nov_02_1543,FigureTest,2021.2.1,59.90886663557054,
,0.4,,Condition\CS-2.BMP,Condition\black.PNG,Sound\silent.wav,,1,0,1,0,,,,,,,,,0,19,19,18,,,,,,,,,,,,,,,,,,,,,,,,,,,,,325.4421413000091,None,,,,,,,,,,,,,,,,,320.9251983000431,None,320.9251983000431,None,None,None,None,None,None,None,,,,,,,,,,,,,hyz1104,001,2021_Nov_02_1543,FigureTest,2021.2.1,59.90886663557054,
,0.4,,Condition\CS-2.BMP,Condition\black.PNG,Sound\silent.wav,,1,0,1,0,,,,,,,,,0,20,20,29,,,,,,,,,,,,,,,,,,,,,,,,,,,,,328.7162512000068,None,,,,,,,,,,,,,,,,,326.6533288000501,None,326.6533288000501,None,328.6697414999944,None,328.6697414999944,None,328.60822384028,None,,,,,,,,,,,,,hyz1104,001,2021_Nov_02_1543,FigureTest,2021.2.1,59.90886663557054,
,0.9,,Condition\CS+2.BMP,Condition\UCS2.BMP,Sound\scream1.wav,,1,0,1,0,,,,,,,,,0,21,21,13,,,,,,,,,,,,,,,,,,,,,,,,,,,,,331.90898360003484,None,,,,,,,,,,,,,,,,,329.8576116000186,None,329.8576116000186,None,330.96716600004584,None,330.96716600004584,None,330.9748897400336,None,,,,,,,,,,,,,hyz1104,001,2021_Nov_02_1543,FigureTest,2021.2.1,59.90886663557054,
,0.4,,Condition\CS-2.BMP,Condition\black.PNG,Sound\silent.wav,,1,0,1,0,,,,,,,,,0,22,22,24,,,,,,,,,,,,,,,,,,,,,,,,,,,,,337.54811600001995,None,,,,,,,,,,,,,,,,,333.01378610002575,None,333.01378610002575,None,None,None,None,None,None,None,,,,,,,,,,,,,hyz1104,001,2021_Nov_02_1543,FigureTest,2021.2.1,59.90886663557054,
,0.9,,Condition\CS+2.BMP,Condition\UCS2.BMP,Sound\scream1.wav,,1,0,1,0,,,,,,,,,0,23,23,5,,,,,,,,,,,,,,,,,,,,,,,,,,,,,340.6413276999956,None,,,,,,,,,,,,,,,,,338.61516460002167,None,338.61516460002167,None,339.7215983000351,None,339.7215983000351,None,339.73250464004235,None,,,,,,,,,,,,,hyz1104,001,2021_Nov_02_1543,FigureTest,2021.2.1,59.90886663557054,
,0.4,,Condition\CS-2.BMP,Condition\black.PNG,Sound\silent.wav,,1,0,1,0,,,,,,,,,0,24,24,28,,,,,,,,,,,,,,,,,,,,,,,,,,,,,346.2890638000099,None,,,,,,,,,,,,,,,,,341.7746942000231,None,341.7746942000231,None,None,None,None,None,None,None,,,,,,,,,,,,,hyz1104,001,2021_Nov_02_1543,FigureTest,2021.2.1,59.90886663557054,
,0.9,,Condition\CS+2.BMP,Condition\UCS2.BMP,Sound\scream1.wav,,1,0,1,0,,,,,,,,,0,25,25,3,,,,,,,,,,,,,,,,,,,,,,,,,,,,,349.58153510000557,None,,,,,,,,,,,,,,,,,347.55513290001545,None,347.55513290001545,None,348.663500500028,None,348.663500500028,None,348.6744990400388,None,,,,,,,,,,,,,hyz1104,001,2021_Nov_02_1543,FigureTest,2021.2.1,59.90886663557054,
,0.9,,Condition\CS+2.BMP,Condition\UCS2.BMP,Sound\scream1.wav,,1,0,1,0,,,,,,,,,0,26,26,12,,,,,,,,,,,,,,,,,,,,,,,,,,,,,352.82103140000254,None,,,,,,,,,,,,,,,,,350.7830063000438,None,350.7830063000438,None,351.7994499000488,None,351.7994499000488,None,351.8009927600157,None,,,,,,,,,,,,,hyz1104,001,2021_Nov_02_1543,FigureTest,2021.2.1,59.90886663557054,
,-0.1,,Condition\CS+2.BMP,Condition\black.PNG,Sound\silent.wav,,1,0,1,0,,,,,,,,,0,27,27,1,,,,,,,,,,,,,,,,,,,,,,,,,,,,,358.54078840004513,None,,,,,,,,,,,,,,,,,354.01845590001903,None,354.01845590001903,None,None,None,None,None,None,None,,,,,,,,,,,,,hyz1104,001,2021_Nov_02_1543,FigureTest,2021.2.1,59.90886663557054,
,0.4,,Condition\CS-2.BMP,Condition\black.PNG,Sound\silent.wav,,1,0,1,0,,,,,,,,,0,28,28,27,,,,,,,,,,,,,,,,,,,,,,,,,,,,,361.831730600039,None,,,,,,,,,,,,,,,,,359.78461560001597,None,359.78461560001597,None,361.80137960001593,None,361.80137960001593,None,361.7396780402982,None,,,,,,,,,,,,,hyz1104,001,2021_Nov_02_1543,FigureTest,2021.2.1,59.90886663557054,
,0.9,,Condition\CS+2.BMP,Condition\UCS2.BMP,Sound\scream1.wav,,1,0,1,0,,,,,,,,,0,29,29,14,,,,,,,,,,,,,,,,,,,,,,,,,,,,,364.9845758000156,None,,,,,,,,,,,,,,,,,362.90617560001556,None,362.90617560001556,None,364.0160803000326,None,364.0160803000326,None,364.0240437400411,None,,,,,,,,,,,,,hyz1104,001,2021_Nov_02_1543,FigureTest,2021.2.1,59.90886663557054,
,-0.1,Rating\ratingCS+2.png,,,,,1,0,1,0,,,,,,,,,,,,,0,0,0,0,,,,,,,,,,,,,,,,,,,,,,,,,,,367.6220511000138,None,367.6220511000138,None,3.5390624999999996,13.865051399974618,367.6220511000138,None,,,,,,,,,,,,,,,,,,,,,,,,,,,,,,,hyz1104,001,2021_Nov_02_1543,FigureTest,2021.2.1,59.90886663557054,
,0.4,Rating\ratingCS-2.png,,,,,1,0,1,0,,,,,,,,,,,,,0,1,1,1,,,,,,,,,,,,,,,,,,,,,,,,,,,382.90684960002545,None,382.90684960002545,None,1.6953124999999998,0.7014212000067346,382.90684960002545,None,,,,,,,,,,,,,,,,,,,,,,,,,,,,,,,hyz1104,001,2021_Nov_02_1543,FigureTest,2021.2.1,59.90886663557054,
,,,,,,,1,0,1,0,,,,,,,,,,,,,,,,,,,,,,,,,,,,,,,,,,,,,,,,,,,,,,,,,,,,,,,,,,,,,,,,,,,,,,,,,,,,,,,,,hyz1104,001,2021_Nov_02_1543,FigureTest,2021.2.1,59.90886663557054,
PreCondition\CS+3.BMP,-0.1,,,,,,2,0,2,0,0,0,0,4,,,,,,,,,,,,,,,,,,,,,,,,,383.5880917000468,None,383.5880917000468,None,space,3.891755999997258,383.5880917000468,None,387.5130849000416,None,387.5130849000416,388.5119772000471,388.5286609000177,None,,,,,,,,,,,,,,,,,,,,,,,,,,,,,,,,,,,,,,,hyz1104,001,2021_Nov_02_1543,FigureTest,2021.2.1,59.90886663557054,
PreCondition\CS-3.BMP,0.4,,,,,,2,0,2,0,0,1,1,7,,,,,,,,,,,,,,,,,,,,,,,,,,,,,,,,,389.5611295000417,None,389.5611295000417,390.5442976000486,390.56097390002105,None,,,,,,,,,,,,,,,,,,,,,,,,,,,,,,,,,,,,,,,hyz1104,001,2021_Nov_02_1543,FigureTest,2021.2.1,59.90886663557054,
PreCondition\CS-3.BMP,0.4,,,,,,2,0,2,0,0,2,2,8,,,,,,,,,,,,,,,,,,,,,,,,,,,,,,,,,391.5773879000335,None,391.5773879000335,None,392.57772699999623,None,,,,,,,,,,,,,,,,,,,,,,,,,,,,,,,,,,,,,,,hyz1104,001,2021_Nov_02_1543,FigureTest,2021.2.1,59.90886663557054,
PreCondition\CS-3.BMP,0.4,,,,,,2,0,2,0,0,3,3,5,,,,,,,,,,,,,,,,,,,,,,,,,,,,,,,,,393.82978800003184,None,393.82978800003184,394.8132886000094,394.8285881000338,None,,,,,,,,,,,,,,,,,,,,,,,,,,,,,,,,,,,,,,,hyz1104,001,2021_Nov_02_1543,FigureTest,2021.2.1,59.90886663557054,
PreCondition\CS-3.BMP,0.4,,,,,,2,0,2,0,0,4,4,9,,,,,,,,,,,,,,,,,,,,,,,,,,,,,,,,,396.0602276000427,None,396.0602276000427,397.04332540003816,397.0600933000096,None,,,,,,,,,,,,,,,,,,,,,,,,,,,,,,,,,,,,,,,hyz1104,001,2021_Nov_02_1543,FigureTest,2021.2.1,59.90886663557054,
PreCondition\CS+3.BMP,-0.1,,,,,,2,0,2,0,0,5,5,3,,,,,,,,,,,,,,,,,,,,,,,,,,,,,,,,,398.1791060999967,None,398.1791060999967,399.1771579000051,399.1939121000469,None,,,,,,,,,,,,,,,,,,,,,,,,,,,,,,,,,,,,,,,hyz1104,001,2021_Nov_02_1543,FigureTest,2021.2.1,59.90886663557054,
PreCondition\CS+3.BMP,-0.1,,,,,,2,0,2,0,0,6,6,1,,,,,,,,,,,,,,,,,,,,,,,,,,,,,,,,,400.21107090002624,None,400.21107090002624,None,401.21001480001723,None,,,,,,,,,,,,,,,,,,,,,,,,,,,,,,,,,,,,,,,hyz1104,001,2021_Nov_02_1543,FigureTest,2021.2.1,59.90886663557054,
PreCondition\CS-3.BMP,0.4,,,,,,2,0,2,0,0,7,7,6,,,,,,,,,,,,,,,,,,,,,,,,,,,,,,,,,402.293351100001,None,402.293351100001,403.27643320005154,403.29312540002866,None,,,,,,,,,,,,,,,,,,,,,,,,,,,,,,,,,,,,,,,hyz1104,001,2021_Nov_02_1543,FigureTest,2021.2.1,59.90886663557054,
PreCondition\CS+3.BMP,-0.1,,,,,,2,0,2,0,0,8,8,2,,,,,,,,,,,,,,,,,,,,,,,,,,,,,,,,,404.3264622000279,None,404.3264622000279,405.30975480005145,405.32615810004063,None,,,,,,,,,,,,,,,,,,,,,,,,,,,,,,,,,,,,,,,hyz1104,001,2021_Nov_02_1543,FigureTest,2021.2.1,59.90886663557054,
PreCondition\CS+3.BMP,-0.1,,,,,,2,0,2,0,0,9,9,0,,,,,,,,,,,,,,,,,,,,,,,,,,,,,,,,,406.49276120000286,None,406.49276120000286,None,407.4938420000253,None,,,,,,,,,,,,,,,,,,,,,,,,,,,,,,,,,,,,,,,hyz1104,001,2021_Nov_02_1543,FigureTest,2021.2.1,59.90886663557054,
,-0.1,Rating\ratingCS+3.png,,,,,2,0,2,0,,,,,0,0,0,0,,,,,,,,,,,,,,,,,,,,,,,,,,,,,,,,,,,410.13666710001417,None,410.13666710001417,None,1.5859375000000002,3.5271013000165112,410.13666710001417,None,,,,,,,,,,,,,,,,,,,,,,,,,,,,,,,hyz1104,001,2021_Nov_02_1543,FigureTest,2021.2.1,59.90886663557054,
,0.4,Rating\ratingCS-3.png,,,,,2,0,2,0,,,,,0,1,1,1,,,,,,,,,,,,,,,,,,,,,,,,,,,,,,,,,,,415.194496000011,None,415.194496000011,None,1.4609374999999996,0.945936200034339,415.194496000011,None,,,,,,,,,,,,,,,,,,,,,,,,,,,,,,,hyz1104,001,2021_Nov_02_1543,FigureTest,2021.2.1,59.90886663557054,
,0.9,,Condition\CS+3.BMP,Condition\UCS3.BMP,Sound\scream1.wav,,2,0,2,0,,,,,,,,,0,0,0,4,,,,,,,,,,,,,,,,,,,,,,,,,,,,,419.56376040005125,None,,,,,,,,,416.0128101000446,None,416.0128101000446,None,space,1.45107349997852,416.0128101000446,None,417.49041329999454,None,417.49041329999454,None,418.5020784000517,None,418.5020784000517,None,418.51191116004486,None,,,,,,,,,,,,,hyz1104,001,2021_Nov_02_1543,FigureTest,2021.2.1,59.90886663557054,
,-0.1,,Condition\CS+3.BMP,Condition\black.PNG,Sound\silent.wav,,2,0,2,0,,,,,,,,,0,1,1,1,,,,,,,,,,,,,,,,,,,,,,,,,,,,,425.3073690000456,None,,,,,,,,,,,,,,,,,420.86132850003196,None,420.86132850003196,None,None,None,None,None,None,None,,,,,,,,,,,,,hyz1104,001,2021_Nov_02_1543,FigureTest,2021.2.1,59.90886663557054,
,0.4,,Condition\CS-3.BMP,Condition\black.PNG,Sound\silent.wav,,2,0,2,0,,,,,,,,,0,2,2,29,,,,,,,,,,,,,,,,,,,,,,,,,,,,,428.6472905999981,None,,,,,,,,,,,,,,,,,426.59014790004585,None,426.59014790004585,None,428.58015819999855,None,428.58015819999855,None,428.5056584502745,None,,,,,,,,,,,,,hyz1104,001,2021_Nov_02_1543,FigureTest,2021.2.1,59.90886663557054,
,0.9,,Condition\CS+3.BMP,Condition\UCS3.BMP,Sound\scream1.wav,,2,0,2,0,,,,,,,,,0,3,3,3,,,,,,,,,,,,,,,,,,,,,,,,,,,,,431.7077409000485,None,,,,,,,,,,,,,,,,,429.68444199999794,None,429.68444199999794,None,430.79093250003643,None,430.79093250003643,None,430.8010530400556,None,,,,,,,,,,,,,hyz1104,001,2021_Nov_02_1543,FigureTest,2021.2.1,59.90886663557054,
,0.4,,Condition\CS-3.BMP,Condition\black.PNG,Sound\silent.wav,,2,0,2,0,,,,,,,,,0,4,4,24,,,,,,,,,,,,,,,,,,,,,,,,,,,,,437.29340280004544,None,,,,,,,,,,,,,,,,,432.8436527000158,None,432.8436527000158,None,None,None,None,None,None,None,,,,,,,,,,,,,hyz1104,001,2021_Nov_02_1543,FigureTest,2021.2.1,59.90886663557054,
,0.4,,Condition\CS-3.BMP,Condition\black.PNG,Sound\silent.wav,,2,0,2,0,,,,,,,,,0,5,5,25,,,,,,,,,,,,,,,,,,,,,,,,,,,,,440.4856112000416,None,,,,,,,,,,,,,,,,,438.44328450004105,None,438.44328450004105,None,440.44887250004103,None,440.44887250004103,None,440.3814890102891,None,,,,,,,,,,,,,hyz1104,001,2021_Nov_02_1543,FigureTest,2021.2.1,59.90886663557054,
,0.4,,Condition\CS-3.BMP,Condition\black.PNG,Sound\silent.wav,,2,0,2,0,,,,,,,,,0,6,6,17,,,,,,,,,,,,,,,,,,,,,,,,,,,,,443.71986470004776,None,,,,,,,,,,,,,,,,,441.70352300000377,None,441.70352300000377,None,443.6508264000295,None,443.6508264000295,None,443.62510508026463,None,,,,,,,,,,,,,hyz1104,001,2021_Nov_02_1543,FigureTest,2021.2.1,59.90886663557054,
,-0.1,,Condition\CS+3.BMP,Condition\black.PNG,Sound\silent.wav,,2,0,2,0,,,,,,,,,0,7,7,2,,,,,,,,,,,,,,,,,,,,,,,,,,,,,446.90540849999525,None,,,,,,,,,,,,,,,,,444.8047659000149,None,444.8047659000149,None,446.7876447000308,None,446.7876447000308,None,446.7095635502774,None,,,,,,,,,,,,,hyz1104,001,2021_Nov_02_1543,FigureTest,2021.2.1,59.90886663557054,
,0.4,,Condition\CS-3.BMP,Condition\black.PNG,Sound\silent.wav,,2,0,2,0,,,,,,,,,0,8,8,15,,,,,,,,,,,,,,,,,,,,,,,,,,,,,450.05645940004615,None,,,,,,,,,,,,,,,,,448.0129339999985,None,448.0129339999985,None,450.008754200011,None,450.008754200011,None,449.93138345025363,None,,,,,,,,,,,,,hyz1104,001,2021_Nov_02_1543,FigureTest,2021.2.1,59.90886663557054,
,0.4,,Condition\CS-3.BMP,Condition\black.PNG,Sound\silent.wav,,2,0,2,0,,,,,,,,,0,9,9,22,,,,,,,,,,,,,,,,,,,,,,,,,,,,,453.14133710000897,None,,,,,,,,,,,,,,,,,451.0964012000477,None,451.0964012000477,None,453.0952610000386,None,453.0952610000386,None,453.01910018025666,None,,,,,,,,,,,,,hyz1104,001,2021_Nov_02_1543,FigureTest,2021.2.1,59.90886663557054,
,0.9,,Condition\CS+3.BMP,Condition\UCS3.BMP,Sound\scream1.wav,,2,0,2,0,,,,,,,,,0,10,10,8,,,,,,,,,,,,,,,,,,,,,,,,,,,,,456.3529192000278,None,,,,,,,,,,,,,,,,,454.3331225000438,None,454.3331225000438,None,455.4374009000021,None,455.4374009000021,None,455.43369591002704,None,,,,,,,,,,,,,hyz1104,001,2021_Nov_02_1543,FigureTest,2021.2.1,59.90886663557054,
,0.4,,Condition\CS-3.BMP,Condition\black.PNG,Sound\silent.wav,,2,0,2,0,,,,,,,,,0,11,11,26,,,,,,,,,,,,,,,,,,,,,,,,,,,,,462.2030895000207,None,,,,,,,,,,,,,,,,,457.66169300000183,None,457.66169300000183,None,None,None,None,None,None,None,,,,,,,,,,,,,hyz1104,001,2021_Nov_02_1543,FigureTest,2021.2.1,59.90886663557054,
,0.9,,Condition\CS+3.BMP,Condition\UCS3.BMP,Sound\scream1.wav,,2,0,2,0,,,,,,,,,0,12,12,6,,,,,,,,,,,,,,,,,,,,,,,,,,,,,465.4081788000185,None,,,,,,,,,,,,,,,,,463.3706544000306,None,463.3706544000306,None,464.4753004000522,None,464.4753004000522,None,464.4711898100737,None,,,,,,,,,,,,,hyz1104,001,2021_Nov_02_1543,FigureTest,2021.2.1,59.90886663557054,
,0.9,,Condition\CS+3.BMP,Condition\UCS3.BMP,Sound\scream1.wav,,2,0,2,0,,,,,,,,,0,13,13,13,,,,,,,,,,,,,,,,,,,,,,,,,,,,,468.64058920001844,None,,,,,,,,,,,,,,,,,466.5786155000096,None,466.5786155000096,None,467.60008950001793,None,467.60008950001793,None,467.59742126005006,None,,,,,,,,,,,,,hyz1104,001,2021_Nov_02_1543,FigureTest,2021.2.1,59.90886663557054,
,0.9,,Condition\CS+3.BMP,Condition\UCS3.BMP,Sound\scream1.wav,,2,0,2,0,,,,,,,,,0,14,14,5,,,,,,,,,,,,,,,,,,,,,,,,,,,,,471.79422910005087,None,,,,,,,,,,,,,,,,,469.72763660002965,None,469.72763660002965,None,470.7395288000116,None,470.7395288000116,None,470.74570066001036,None,,,,,,,,,,,,,hyz1104,001,2021_Nov_02_1543,FigureTest,2021.2.1,59.90886663557054,
,0.9,,Condition\CS+3.BMP,Condition\UCS3.BMP,Sound\scream1.wav,,2,0,2,0,,,,,,,,,0,15,15,10,,,,,,,,,,,,,,,,,,,,,,,,,,,,,475.06409290002193,None,,,,,,,,,,,,,,,,,473.0109915000503,None,473.0109915000503,None,474.0258237000089,None,474.0258237000089,None,474.0284330600058,None,,,,,,,,,,,,,hyz1104,001,2021_Nov_02_1543,FigureTest,2021.2.1,59.90886663557054,
,-0.1,,Condition\CS+3.BMP,Condition\black.PNG,Sound\silent.wav,,2,0,2,0,,,,,,,,,0,16,16,0,,,,,,,,,,,,,,,,,,,,,,,,,,,,,480.73853180004517,None,,,,,,,,,,,,,,,,,476.260563799995,None,476.260563799995,None,None,None,None,None,None,None,,,,,,,,,,,,,hyz1104,001,2021_Nov_02_1543,FigureTest,2021.2.1,59.90886663557054,
,0.9,,Condition\CS+3.BMP,Condition\UCS3.BMP,Sound\scream1.wav,,2,0,2,0,,,,,,,,,0,17,17,11,,,,,,,,,,,,,,,,,,,,,,,,,,,,,483.900974600052,None,,,,,,,,,,,,,,,,,481.8401887000073,None,481.8401887000073,None,482.94513150001876,None,482.94513150001876,None,482.95672824004436,None,,,,,,,,,,,,,hyz1104,001,2021_Nov_02_1543,FigureTest,2021.2.1,59.90886663557054,
,0.4,,Condition\CS-3.BMP,Condition\black.PNG,Sound\silent.wav,,2,0,2,0,,,,,,,,,0,18,18,27,,,,,,,,,,,,,,,,,,,,,,,,,,,,,489.481830100005,None,,,,,,,,,,,,,,,,,484.9650715000462,None,484.9650715000462,None,None,None,None,None,None,None,,,,,,,,,,,,,hyz1104,001,2021_Nov_02_1543,FigureTest,2021.2.1,59.90886663557054,
,0.4,,Condition\CS-3.BMP,Condition\black.PNG,Sound\silent.wav,,2,0,2,0,,,,,,,,,0,19,19,16,,,,,,,,,,,,,,,,,,,,,,,,,,,,,492.7911238000379,None,,,,,,,,,,,,,,,,,490.7297330000438,None,490.7297330000438,None,492.66893850005,None,492.66893850005,None,492.6523097802536,None,,,,,,,,,,,,,hyz1104,001,2021_Nov_02_1543,FigureTest,2021.2.1,59.90886663557054,
,0.4,,Condition\CS-3.BMP,Condition\black.PNG,Sound\silent.wav,,2,0,2,0,,,,,,,,,0,20,20,21,,,,,,,,,,,,,,,,,,,,,,,,,,,,,495.9819402000285,None,,,,,,,,,,,,,,,,,493.9387862000149,None,493.9387862000149,None,495.9505395000451,None,495.9505395000451,None,495.87814481026146,None,,,,,,,,,,,,,hyz1104,001,2021_Nov_02_1543,FigureTest,2021.2.1,59.90886663557054,
,0.4,,Condition\CS-3.BMP,Condition\black.PNG,Sound\silent.wav,,2,0,2,0,,,,,,,,,0,21,21,23,,,,,,,,,,,,,,,,,,,,,,,,,,,,,499.2219422000344,None,,,,,,,,,,,,,,,,,497.15477280004416,None,497.15477280004416,None,499.14943300001323,None,499.14943300001323,None,499.07741348027486,None,,,,,,,,,,,,,hyz1104,001,2021_Nov_02_1543,FigureTest,2021.2.1,59.90886663557054,
,0.9,,Condition\CS+3.BMP,Condition\UCS3.BMP,Sound\scream1.wav,,2,0,2,0,,,,,,,,,0,22,22,9,,,,,,,,,,,,,,,,,,,,,,,,,,,,,502.3958187000244,None,,,,,,,,,,,,,,,,,500.33742710005026,None,500.33742710005026,None,501.44784630002687,None,501.44784630002687,None,501.45691434006443,None,,,,,,,,,,,,,hyz1104,001,2021_Nov_02_1543,FigureTest,2021.2.1,59.90886663557054,
,0.9,,Condition\CS+3.BMP,Condition\UCS3.BMP,Sound\scream1.wav,,2,0,2,0,,,,,,,,,0,23,23,12,,,,,,,,,,,,,,,,,,,,,,,,,,,,,505.5716432000045,None,,,,,,,,,,,,,,,,,503.4840620000032,None,503.4840620000032,None,504.494153800013,None,504.494153800013,None,504.5024558600504,None,,,,,,,,,,,,,hyz1104,001,2021_Nov_02_1543,FigureTest,2021.2.1,59.90886663557054,
,0.4,,Condition\CS-3.BMP,Condition\black.PNG,Sound\silent.wav,,2,0,2,0,,,,,,,,,0,24,24,19,,,,,,,,,,,,,,,,,,,,,,,,,,,,,511.0846892000409,None,,,,,,,,,,,,,,,,,506.63418290001573,None,506.63418290001573,None,None,None,None,None,None,None,,,,,,,,,,,,,hyz1104,001,2021_Nov_02_1543,FigureTest,2021.2.1,59.90886663557054,
,0.4,,Condition\CS-3.BMP,Condition\black.PNG,Sound\silent.wav,,2,0,2,0,,,,,,,,,0,25,25,28,,,,,,,,,,,,,,,,,,,,,,,,,,,,,514.2278951000189,None,,,,,,,,,,,,,,,,,512.1508994000033,None,512.1508994000033,None,514.0875508000026,None,514.0875508000026,None,514.0556698502332,None,,,,,,,,,,,,,hyz1104,001,2021_Nov_02_1543,FigureTest,2021.2.1,59.90886663557054,
,0.9,,Condition\CS+3.BMP,Condition\UCS3.BMP,Sound\scream1.wav,,2,0,2,0,,,,,,,,,0,26,26,7,,,,,,,,,,,,,,,,,,,,,,,,,,,,,517.3289476000355,None,,,,,,,,,,,,,,,,,515.3079158000182,None,515.3079158000182,None,516.4391015000292,None,516.4391015000292,None,516.4417914700635,None,,,,,,,,,,,,,hyz1104,001,2021_Nov_02_1543,FigureTest,2021.2.1,59.90886663557054,
,0.9,,Condition\CS+3.BMP,Condition\UCS3.BMP,Sound\scream1.wav,,2,0,2,0,,,,,,,,,0,27,27,14,,,,,,,,,,,,,,,,,,,,,,,,,,,,,520.6337835000013,None,,,,,,,,,,,,,,,,,518.5664054000517,None,518.5664054000517,None,519.6004705000087,None,519.6004705000087,None,519.59624536006,None,,,,,,,,,,,,,hyz1104,001,2021_Nov_02_1543,FigureTest,2021.2.1,59.90886663557054,
,0.4,,Condition\CS-3.BMP,Condition\black.PNG,Sound\silent.wav,,2,0,2,0,,,,,,,,,0,28,28,20,,,,,,,,,,,,,,,,,,,,,,,,,,,,,526.4303820000496,None,,,,,,,,,,,,,,,,,521.9441040999955,None,521.9441040999955,None,None,None,None,None,None,None,,,,,,,,,,,,,hyz1104,001,2021_Nov_02_1543,FigureTest,2021.2.1,59.90886663557054,
,0.4,,Condition\CS-3.BMP,Condition\black.PNG,Sound\silent.wav,,2,0,2,0,,,,,,,,,0,29,29,18,,,,,,,,,,,,,,,,,,,,,,,,,,,,,529.5649664000375,None,,,,,,,,,,,,,,,,,527.4816755000502,None,527.4816755000502,None,529.4669041000307,None,529.4669041000307,None,529.4037425802787,None,,,,,,,,,,,,,hyz1104,001,2021_Nov_02_1543,FigureTest,2021.2.1,59.90886663557054,
,-0.1,Rating\ratingCS+3.png,,,,,2,0,2,0,,,,,,,,,,,,,0,0,0,0,,,,,,,,,,,,,,,,,,,,,,,,,,,532.1775513000321,None,532.1775513000321,None,1.5468749999999996,18.19250090001151,532.1775513000321,None,,,,,,,,,,,,,,,,,,,,,,,,,,,,,,,hyz1104,001,2021_Nov_02_1543,FigureTest,2021.2.1,59.90886663557054,
,0.4,Rating\ratingCS-3.png,,,,,2,0,2,0,,,,,,,,,,,,,0,1,1,1,,,,,,,,,,,,,,,,,,,,,,,,,,,551.8170494000078,None,551.8170494000078,None,1.5781249999999996,1.4872989999712445,551.8170494000078,None,,,,,,,,,,,,,,,,,,,,,,,,,,,,,,,hyz1104,001,2021_Nov_02_1543,FigureTest,2021.2.1,59.90886663557054,
,,,,,,,2,0,2,0,,,,,,,,,,,,,,,,,,,,,,,,,,,,,,,,,,,,,,,,,,,,,,,,,,,,,,,,,,,,,,,,,,,,,,,,,,,,,,,,,hyz1104,001,2021_Nov_02_1543,FigureTest,2021.2.1,59.90886663557054,
,,,,,,,,,,,,,,,,,,,,,,,,,,,,,,,,,,,,,,,,,,,,,,,,,,,,,,,,,,,,,,,,,,,,,,,,,,,,,,,553.3986442000023,None,553.3986442000023,None,space,2.3370986999943852,553.3986442000023,None,,,,,hyz1104,001,2021_Nov_02_1543,FigureTest,2021.2.1,59.90886663557054,
,0.4,,,,,Extinction\CS-1.BMP,,,,,,,,,,,,,,,,,,,,,0,0,0,0,0,0,0,12,,,,,,,,,,,,,,,,,556.7820069000009,None,,,,,,,,,,,,,,,,,,,,,,,,,,,,,,,,,,,555.7977307999972,None,555.7977307999972,None,hyz1104,001,2021_Nov_02_1543,FigureTest,2021.2.1,59.90886663557054,
,0.4,,,,,Extinction\CS-1.BMP,,,,,,,,,,,,,,,,,,,,,0,0,0,0,0,1,1,11,,,,,,,,,,,,,,,,,558.9308694000356,None,,,,,,,,,,,,,,,,,,,,,,,,,,,,,,,,,,,557.9165981000406,None,557.9165981000406,None,hyz1104,001,2021_Nov_02_1543,FigureTest,2021.2.1,59.90886663557054,
,-0.1,,,,,Extinction\CS+1.BMP,,,,,,,,,,,,,,,,,,,,,0,0,0,0,0,2,2,6,,,,,,,,,,,,,,,,,561.0313020000467,None,,,,,,,,,,,,,,,,,,,,,,,,,,,,,,,,,,,560.0327311000437,None,560.0327311000437,None,hyz1104,001,2021_Nov_02_1543,FigureTest,2021.2.1,59.90886663557054,
,0.4,,,,,Extinction\CS-1.BMP,,,,,,,,,,,,,,,,,,,,,0,0,0,0,0,3,3,10,,,,,,,,,,,,,,,,,563.198053500033,None,,,,,,,,,,,,,,,,,,,,,,,,,,,,,,,,,,,562.2098934000242,None,562.2098934000242,None,hyz1104,001,2021_Nov_02_1543,FigureTest,2021.2.1,59.90886663557054,
,-0.1,,,,,Extinction\CS+1.BMP,,,,,,,,,,,,,,,,,,,,,0,0,0,0,0,4,4,7,,,,,,,,,,,,,,,,,565.2649204000481,None,,,,,,,,,,,,,,,,,,,,,,,,,,,,,,,,,,,564.2591379000223,None,564.2591379000223,None,hyz1104,001,2021_Nov_02_1543,FigureTest,2021.2.1,59.90886663557054,
,0.4,,,,,Extinction\CS-1.BMP,,,,,,,,,,,,,,,,,,,,,0,0,0,0,0,5,5,13,,,,,,,,,,,,,,,,,567.5496228000266,None,,,,,,,,,,,,,,,,,,,,,,,,,,,,,,,,,,,566.5592755000107,None,566.5592755000107,None,hyz1104,001,2021_Nov_02_1543,FigureTest,2021.2.1,59.90886663557054,
,-0.1,,,,,Extinction\CS+1.BMP,,,,,,,,,,,,,,,,,,,,,0,0,0,0,0,6,6,1,,,,,,,,,,,,,,,,,569.5970043000416,None,,,,,,,,,,,,,,,,,,,,,,,,,,,,,,,,,,,568.5982293999987,None,568.5982293999987,None,hyz1104,001,2021_Nov_02_1543,FigureTest,2021.2.1,59.90886663557054,
,0.4,,,,,Extinction\CS-1.BMP,,,,,,,,,,,,,,,,,,,,,0,0,0,0,0,7,7,15,,,,,,,,,,,,,,,,,571.73214680003,None,,,,,,,,,,,,,,,,,,,,,,,,,,,,,,,,,,,570.7317140999949,None,570.7317140999949,None,hyz1104,001,2021_Nov_02_1543,FigureTest,2021.2.1,59.90886663557054,
,0.4,,,,,Extinction\CS-1.BMP,,,,,,,,,,,,,,,,,,,,,0,0,0,0,0,8,8,18,,,,,,,,,,,,,,,,,573.9147305000224,None,,,,,,,,,,,,,,,,,,,,,,,,,,,,,,,,,,,572.9132212999975,None,572.9132212999975,None,hyz1104,001,2021_Nov_02_1543,FigureTest,2021.2.1,59.90886663557054,
,-0.1,,,,,Extinction\CS+1.BMP,,,,,,,,,,,,,,,,,,,,,0,0,0,0,0,9,9,5,,,,,,,,,,,,,,,,,576.131306299998,None,,,,,,,,,,,,,,,,,,,,,,,,,,,,,,,,,,,575.1390717000468,None,575.1390717000468,None,hyz1104,001,2021_Nov_02_1543,FigureTest,2021.2.1,59.90886663557054,
,-0.1,,,,,Extinction\CS+1.BMP,,,,,,,,,,,,,,,,,,,,,0,0,0,0,0,10,10,0,,,,,,,,,,,,,,,,,578.3627503000316,None,,,,,,,,,,,,,,,,,,,,,,,,,,,,,,,,,,,577.3629375000019,None,577.3629375000019,None,hyz1104,001,2021_Nov_02_1543,FigureTest,2021.2.1,59.90886663557054,
,0.4,,,,,Extinction\CS-1.BMP,,,,,,,,,,,,,,,,,,,,,0,0,0,0,0,11,11,17,,,,,,,,,,,,,,,,,580.5460612000315,None,,,,,,,,,,,,,,,,,,,,,,,,,,,,,,,,,,,579.5405629000161,None,579.5405629000161,None,hyz1104,001,2021_Nov_02_1543,FigureTest,2021.2.1,59.90886663557054,
,-0.1,,,,,Extinction\CS+1.BMP,,,,,,,,,,,,,,,,,,,,,0,0,0,0,0,12,12,3,,,,,,,,,,,,,,,,,582.646716999996,None,,,,,,,,,,,,,,,,,,,,,,,,,,,,,,,,,,,581.6552618000424,None,581.6552618000424,None,hyz1104,001,2021_Nov_02_1543,FigureTest,2021.2.1,59.90886663557054,
,0.4,,,,,Extinction\CS-1.BMP,,,,,,,,,,,,,,,,,,,,,0,0,0,0,0,13,13,14,,,,,,,,,,,,,,,,,584.7314431000268,None,,,,,,,,,,,,,,,,,,,,,,,,,,,,,,,,,,,583.7253708000062,None,583.7253708000062,None,hyz1104,001,2021_Nov_02_1543,FigureTest,2021.2.1,59.90886663557054,
,0.4,,,,,Extinction\CS-1.BMP,,,,,,,,,,,,,,,,,,,,,0,0,0,0,0,14,14,16,,,,,,,,,,,,,,,,,586.8285344000324,None,,,,,,,,,,,,,,,,,,,,,,,,,,,,,,,,,,,585.8282626,None,585.8282626,None,hyz1104,001,2021_Nov_02_1543,FigureTest,2021.2.1,59.90886663557054,
,-0.1,,,,,Extinction\CS+1.BMP,,,,,,,,,,,,,,,,,,,,,0,0,0,0,0,15,15,4,,,,,,,,,,,,,,,,,588.9144678000011,None,,,,,,,,,,,,,,,,,,,,,,,,,,,,,,,,,,,587.9123308000271,None,587.9123308000271,None,hyz1104,001,2021_Nov_02_1543,FigureTest,2021.2.1,59.90886663557054,
,0.4,,,,,Extinction\CS-1.BMP,,,,,,,,,,,,,,,,,,,,,0,0,0,0,0,16,16,19,,,,,,,,,,,,,,,,,591.0629925000248,None,,,,,,,,,,,,,,,,,,,,,,,,,,,,,,,,,,,590.0706093000481,None,590.0706093000481,None,hyz1104,001,2021_Nov_02_1543,FigureTest,2021.2.1,59.90886663557054,
,-0.1,,,,,Extinction\CS+1.BMP,,,,,,,,,,,,,,,,,,,,,0,0,0,0,0,17,17,9,,,,,,,,,,,,,,,,,593.1614683000371,None,,,,,,,,,,,,,,,,,,,,,,,,,,,,,,,,,,,592.161898899998,None,592.161898899998,None,hyz1104,001,2021_Nov_02_1543,FigureTest,2021.2.1,59.90886663557054,
,-0.1,,,,,Extinction\CS+1.BMP,,,,,,,,,,,,,,,,,,,,,0,0,0,0,0,18,18,2,,,,,,,,,,,,,,,,,595.4443079000339,None,,,,,,,,,,,,,,,,,,,,,,,,,,,,,,,,,,,594.4444237000425,None,594.4444237000425,None,hyz1104,001,2021_Nov_02_1543,FigureTest,2021.2.1,59.90886663557054,
,-0.1,,,,,Extinction\CS+1.BMP,,,,,,,,,,,,,,,,,,,,,0,0,0,0,0,19,19,8,,,,,,,,,,,,,,,,,597.6271609000396,None,,,,,,,,,,,,,,,,,,,,,,,,,,,,,,,,,,,596.6271592000267,None,596.6271592000267,None,hyz1104,001,2021_Nov_02_1543,FigureTest,2021.2.1,59.90886663557054,
,-0.1,Rating\ratingCS+3.png,,,,,,,,,,,,,,,,,,,,,,,,,0,0,0,0,,,,,0,0,0,0,,,,,,,,,,,,,,,600.3326064000139,None,600.3326064000139,None,2.1171875,357.65934760001255,600.3326064000139,None,,,,,,,,,,,,,,,,,,,,,,,,,,,,,,,hyz1104,001,2021_Nov_02_1543,FigureTest,2021.2.1,59.90886663557054,
,0.4,Rating\ratingCS-3.png,,,,,,,,,,,,,,,,,,,,,,,,,0,0,0,0,,,,,0,1,1,1,,,,,,,,,,,,,,,959.6606620000093,None,959.6606620000093,None,1.9062499999999998,0.9523056999896653,959.6606620000093,None,,,,,,,,,,,,,,,,,,,,,,,,,,,,,,,hyz1104,001,2021_Nov_02_1543,FigureTest,2021.2.1,59.90886663557054,
,,,,,,,,,,,,,,,,,,,,,,,,,,,0,0,0,0,,,,,,,,,,,,,,,,,,,,,,,,,,,,,,,,,,,,,,,,,,,,,,,,,,,,,,,,,,,,,hyz1104,001,2021_Nov_02_1543,FigureTest,2021.2.1,59.90886663557054,
,0.4,,,,,Extinction\CS-1.BMP,,,,,,,,,,,,,,,,,,,,,1,0,1,0,0,0,0,15,,,,,,,,,,,,,,,,,961.4048725000466,None,,,,,,,,,,,,,,,,,,,,,,,,,,,,,,,,,,,960.3658754000207,None,960.3658754000207,None,hyz1104,001,2021_Nov_02_1543,FigureTest,2021.2.1,59.90886663557054,
,0.4,,,,,Extinction\CS-1.BMP,,,,,,,,,,,,,,,,,,,,,1,0,1,0,0,1,1,12,,,,,,,,,,,,,,,,,963.5066249000374,None,,,,,,,,,,,,,,,,,,,,,,,,,,,,,,,,,,,962.5043453000253,None,962.5043453000253,None,hyz1104,001,2021_Nov_02_1543,FigureTest,2021.2.1,59.90886663557054,
,0.4,,,,,Extinction\CS-1.BMP,,,,,,,,,,,,,,,,,,,,,1,0,1,0,0,2,2,18,,,,,,,,,,,,,,,,,965.5891990000382,None,,,,,,,,,,,,,,,,,,,,,,,,,,,,,,,,,,,964.5875912000192,None,964.5875912000192,None,hyz1104,001,2021_Nov_02_1543,FigureTest,2021.2.1,59.90886663557054,
,0.4,,,,,Extinction\CS-1.BMP,,,,,,,,,,,,,,,,,,,,,1,0,1,0,0,3,3,17,,,,,,,,,,,,,,,,,967.6539333999972,None,,,,,,,,,,,,,,,,,,,,,,,,,,,,,,,,,,,966.6398367000511,None,966.6398367000511,None,hyz1104,001,2021_Nov_02_1543,FigureTest,2021.2.1,59.90886663557054,
,-0.1,,,,,Extinction\CS+1.BMP,,,,,,,,,,,,,,,,,,,,,1,0,1,0,0,4,4,7,,,,,,,,,,,,,,,,,969.8392714000074,None,,,,,,,,,,,,,,,,,,,,,,,,,,,,,,,,,,,968.8390896000201,None,968.8390896000201,None,hyz1104,001,2021_Nov_02_1543,FigureTest,2021.2.1,59.90886663557054,
,-0.1,,,,,Extinction\CS+1.BMP,,,,,,,,,,,,,,,,,,,,,1,0,1,0,0,5,5,4,,,,,,,,,,,,,,,,,971.937623100006,None,,,,,,,,,,,,,,,,,,,,,,,,,,,,,,,,,,,970.9376245000167,None,970.9376245000167,None,hyz1104,001,2021_Nov_02_1543,FigureTest,2021.2.1,59.90886663557054,
,0.4,,,,,Extinction\CS-1.BMP,,,,,,,,,,,,,,,,,,,,,1,0,1,0,0,6,6,13,,,,,,,,,,,,,,,,,974.1368558999966,None,,,,,,,,,,,,,,,,,,,,,,,,,,,,,,,,,,,973.1314320000238,None,973.1314320000238,None,hyz1104,001,2021_Nov_02_1543,FigureTest,2021.2.1,59.90886663557054,
,-0.1,,,,,Extinction\CS+1.BMP,,,,,,,,,,,,,,,,,,,,,1,0,1,0,0,7,7,6,,,,,,,,,,,,,,,,,976.3864804000477,None,,,,,,,,,,,,,,,,,,,,,,,,,,,,,,,,,,,975.380698700028,None,975.380698700028,None,hyz1104,001,2021_Nov_02_1543,FigureTest,2021.2.1,59.90886663557054,
,-0.1,,,,,Extinction\CS+1.BMP,,,,,,,,,,,,,,,,,,,,,1,0,1,0,0,8,8,0,,,,,,,,,,,,,,,,,978.6555675000418,None,,,,,,,,,,,,,,,,,,,,,,,,,,,,,,,,,,,977.652940800006,None,977.652940800006,None,hyz1104,001,2021_Nov_02_1543,FigureTest,2021.2.1,59.90886663557054,
,-0.1,,,,,Extinction\CS+1.BMP,,,,,,,,,,,,,,,,,,,,,1,0,1,0,0,9,9,8,,,,,,,,,,,,,,,,,980.7531810000073,None,,,,,,,,,,,,,,,,,,,,,,,,,,,,,,,,,,,979.7384486000519,None,979.7384486000519,None,hyz1104,001,2021_Nov_02_1543,FigureTest,2021.2.1,59.90886663557054,
,0.4,,,,,Extinction\CS-1.BMP,,,,,,,,,,,,,,,,,,,,,1,0,1,0,0,10,10,16,,,,,,,,,,,,,,,,,982.8189852000214,None,,,,,,,,,,,,,,,,,,,,,,,,,,,,,,,,,,,981.8205964000081,None,981.8205964000081,None,hyz1104,001,2021_Nov_02_1543,FigureTest,2021.2.1,59.90886663557054,
,-0.1,,,,,Extinction\CS+1.BMP,,,,,,,,,,,,,,,,,,,,,1,0,1,0,0,11,11,1,,,,,,,,,,,,,,,,,985.0532589000068,None,,,,,,,,,,,,,,,,,,,,,,,,,,,,,,,,,,,984.0438288000296,None,984.0438288000296,None,hyz1104,001,2021_Nov_02_1543,FigureTest,2021.2.1,59.90886663557054,
,0.4,,,,,Extinction\CS-1.BMP,,,,,,,,,,,,,,,,,,,,,1,0,1,0,0,12,12,19,,,,,,,,,,,,,,,,,987.3519534000079,None,,,,,,,,,,,,,,,,,,,,,,,,,,,,,,,,,,,986.349600400019,None,986.349600400019,None,hyz1104,001,2021_Nov_02_1543,FigureTest,2021.2.1,59.90886663557054,
,-0.1,,,,,Extinction\CS+1.BMP,,,,,,,,,,,,,,,,,,,,,1,0,1,0,0,13,13,3,,,,,,,,,,,,,,,,,989.4017552000005,None,,,,,,,,,,,,,,,,,,,,,,,,,,,,,,,,,,,988.4116327000083,None,988.4116327000083,None,hyz1104,001,2021_Nov_02_1543,FigureTest,2021.2.1,59.90886663557054,
,-0.1,,,,,Extinction\CS+1.BMP,,,,,,,,,,,,,,,,,,,,,1,0,1,0,0,14,14,9,,,,,,,,,,,,,,,,,991.6514436000143,None,,,,,,,,,,,,,,,,,,,,,,,,,,,,,,,,,,,990.6371963000274,None,990.6371963000274,None,hyz1104,001,2021_Nov_02_1543,FigureTest,2021.2.1,59.90886663557054,
,0.4,,,,,Extinction\CS-1.BMP,,,,,,,,,,,,,,,,,,,,,1,0,1,0,0,15,15,11,,,,,,,,,,,,,,,,,994.1182475000387,None,,,,,,,,,,,,,,,,,,,,,,,,,,,,,,,,,,,993.1093103000312,None,993.1093103000312,None,hyz1104,001,2021_Nov_02_1543,FigureTest,2021.2.1,59.90886663557054,
,-0.1,,,,,Extinction\CS+1.BMP,,,,,,,,,,,,,,,,,,,,,1,0,1,0,0,16,16,2,,,,,,,,,,,,,,,,,996.4509664000361,None,,,,,,,,,,,,,,,,,,,,,,,,,,,,,,,,,,,995.460479100002,None,995.460479100002,None,hyz1104,001,2021_Nov_02_1543,FigureTest,2021.2.1,59.90886663557054,
,0.4,,,,,Extinction\CS-1.BMP,,,,,,,,,,,,,,,,,,,,,1,0,1,0,0,17,17,10,,,,,,,,,,,,,,,,,998.7170533000026,None,,,,,,,,,,,,,,,,,,,,,,,,,,,,,,,,,,,997.7227385000442,None,997.7227385000442,None,hyz1104,001,2021_Nov_02_1543,FigureTest,2021.2.1,59.90886663557054,
,0.4,,,,,Extinction\CS-1.BMP,,,,,,,,,,,,,,,,,,,,,1,0,1,0,0,18,18,14,,,,,,,,,,,,,,,,,1000.8174462000025,None,,,,,,,,,,,,,,,,,,,,,,,,,,,,,,,,,,,999.817249100015,None,999.817249100015,None,hyz1104,001,2021_Nov_02_1543,FigureTest,2021.2.1,59.90886663557054,
,-0.1,,,,,Extinction\CS+1.BMP,,,,,,,,,,,,,,,,,,,,,1,0,1,0,0,19,19,5,,,,,,,,,,,,,,,,,1003.1337918000063,None,,,,,,,,,,,,,,,,,,,,,,,,,,,,,,,,,,,1002.1255872000474,None,1002.1255872000474,None,hyz1104,001,2021_Nov_02_1543,FigureTest,2021.2.1,59.90886663557054,
,-0.1,Rating\ratingCS+3.png,,,,,,,,,,,,,,,,,,,,,,,,,1,0,1,0,,,,,0,0,0,0,,,,,,,,,,,,,,,1005.83474260004,None,1005.83474260004,None,2.7734375,4.619529100018553,1005.83474260004,None,,,,,,,,,,,,,,,,,,,,,,,,,,,,,,,hyz1104,001,2021_Nov_02_1543,FigureTest,2021.2.1,59.90886663557054,
,0.4,Rating\ratingCS-3.png,,,,,,,,,,,,,,,,,,,,,,,,,1,0,1,0,,,,,0,1,1,1,,,,,,,,,,,,,,,1012.1131430999958,None,1012.1131430999958,None,2.3671875,0.9111663000076078,1012.1131430999958,None,,,,,,,,,,,,,,,,,,,,,,,,,,,,,,,hyz1104,001,2021_Nov_02_1543,FigureTest,2021.2.1,59.90886663557054,
,,,,,,,,,,,,,,,,,,,,,,,,,,,1,0,1,0,,,,,,,,,,,,,,,,,,,,,,,,,,,,,,,,,,,,,,,,,,,,,,,,,,,,,,,,,,,,,hyz1104,001,2021_Nov_02_1543,FigureTest,2021.2.1,59.90886663557054,
,0.4,,,,,Extinction\CS-1.BMP,,,,,,,,,,,,,,,,,,,,,2,0,2,0,0,0,0,19,,,,,,,,,,,,,,,,,1013.790526900033,None,,,,,,,,,,,,,,,,,,,,,,,,,,,,,,,,,,,1012.8022559999954,None,1012.8022559999954,None,hyz1104,001,2021_Nov_02_1543,FigureTest,2021.2.1,59.90886663557054,
,0.4,,,,,Extinction\CS-1.BMP,,,,,,,,,,,,,,,,,,,,,2,0,2,0,0,1,1,17,,,,,,,,,,,,,,,,,1016.0071039000177,None,,,,,,,,,,,,,,,,,,,,,,,,,,,,,,,,,,,1015.0066392000299,None,1015.0066392000299,None,hyz1104,001,2021_Nov_02_1543,FigureTest,2021.2.1,59.90886663557054,
,0.4,,,,,Extinction\CS-1.BMP,,,,,,,,,,,,,,,,,,,,,2,0,2,0,0,2,2,11,,,,,,,,,,,,,,,,,1018.1907596000237,None,,,,,,,,,,,,,,,,,,,,,,,,,,,,,,,,,,,1017.185537900019,None,1017.185537900019,None,hyz1104,001,2021_Nov_02_1543,FigureTest,2021.2.1,59.90886663557054,
,-0.1,,,,,Extinction\CS+1.BMP,,,,,,,,,,,,,,,,,,,,,2,0,2,0,0,3,3,8,,,,,,,,,,,,,,,,,1020.38984420005,None,,,,,,,,,,,,,,,,,,,,,,,,,,,,,,,,,,,1019.3847540999996,None,1019.3847540999996,None,hyz1104,001,2021_Nov_02_1543,FigureTest,2021.2.1,59.90886663557054,
,0.4,,,,,Extinction\CS-1.BMP,,,,,,,,,,,,,,,,,,,,,2,0,2,0,0,4,4,18,,,,,,,,,,,,,,,,,1022.4766581000295,None,,,,,,,,,,,,,,,,,,,,,,,,,,,,,,,,,,,1021.4838123000227,None,1021.4838123000227,None,hyz1104,001,2021_Nov_02_1543,FigureTest,2021.2.1,59.90886663557054,
,-0.1,,,,,Extinction\CS+1.BMP,,,,,,,,,,,,,,,,,,,,,2,0,2,0,0,5,5,0,,,,,,,,,,,,,,,,,1024.5775927000213,None,,,,,,,,,,,,,,,,,,,,,,,,,,,,,,,,,,,1023.5748913999996,None,1023.5748913999996,None,hyz1104,001,2021_Nov_02_1543,FigureTest,2021.2.1,59.90886663557054,
,-0.1,,,,,Extinction\CS+1.BMP,,,,,,,,,,,,,,,,,,,,,2,0,2,0,0,6,6,4,,,,,,,,,,,,,,,,,1026.8258254000102,None,,,,,,,,,,,,,,,,,,,,,,,,,,,,,,,,,,,1025.8249408000265,None,1025.8249408000265,None,hyz1104,001,2021_Nov_02_1543,FigureTest,2021.2.1,59.90886663557054,
,0.4,,,,,Extinction\CS-1.BMP,,,,,,,,,,,,,,,,,,,,,2,0,2,0,0,7,7,16,,,,,,,,,,,,,,,,,1028.9918085000245,None,,,,,,,,,,,,,,,,,,,,,,,,,,,,,,,,,,,1027.9869889999973,None,1027.9869889999973,None,hyz1104,001,2021_Nov_02_1543,FigureTest,2021.2.1,59.90886663557054,
,-0.1,,,,,Extinction\CS+1.BMP,,,,,,,,,,,,,,,,,,,,,2,0,2,0,0,8,8,2,,,,,,,,,,,,,,,,,1031.0916277000215,None,,,,,,,,,,,,,,,,,,,,,,,,,,,,,,,,,,,1030.1018528999994,None,1030.1018528999994,None,hyz1104,001,2021_Nov_02_1543,FigureTest,2021.2.1,59.90886663557054,
,0.4,,,,,Extinction\CS-1.BMP,,,,,,,,,,,,,,,,,,,,,2,0,2,0,0,9,9,10,,,,,,,,,,,,,,,,,1033.2527214000002,None,,,,,,,,,,,,,,,,,,,,,,,,,,,,,,,,,,,1032.2602558000362,None,1032.2602558000362,None,hyz1104,001,2021_Nov_02_1543,FigureTest,2021.2.1,59.90886663557054,
,0.4,,,,,Extinction\CS-1.BMP,,,,,,,,,,,,,,,,,,,,,2,0,2,0,0,10,10,13,,,,,,,,,,,,,,,,,1035.384734500025,None,,,,,,,,,,,,,,,,,,,,,,,,,,,,,,,,,,,1034.3846099000075,None,1034.3846099000075,None,hyz1104,001,2021_Nov_02_1543,FigureTest,2021.2.1,59.90886663557054,
,-0.1,,,,,Extinction\CS+1.BMP,,,,,,,,,,,,,,,,,,,,,2,0,2,0,0,11,11,1,,,,,,,,,,,,,,,,,1037.497125599999,None,,,,,,,,,,,,,,,,,,,,,,,,,,,,,,,,,,,1036.5085189000238,None,1036.5085189000238,None,hyz1104,001,2021_Nov_02_1543,FigureTest,2021.2.1,59.90886663557054,
,-0.1,,,,,Extinction\CS+1.BMP,,,,,,,,,,,,,,,,,,,,,2,0,2,0,0,12,12,5,,,,,,,,,,,,,,,,,1039.7126254000468,None,,,,,,,,,,,,,,,,,,,,,,,,,,,,,,,,,,,1038.708637600008,None,1038.708637600008,None,hyz1104,001,2021_Nov_02_1543,FigureTest,2021.2.1,59.90886663557054,
,0.4,,,,,Extinction\CS-1.BMP,,,,,,,,,,,,,,,,,,,,,2,0,2,0,0,13,13,15,,,,,,,,,,,,,,,,,1041.8457406000234,None,,,,,,,,,,,,,,,,,,,,,,,,,,,,,,,,,,,1040.8570406000363,None,1040.8570406000363,None,hyz1104,001,2021_Nov_02_1543,FigureTest,2021.2.1,59.90886663557054,
,-0.1,,,,,Extinction\CS+1.BMP,,,,,,,,,,,,,,,,,,,,,2,0,2,0,0,14,14,6,,,,,,,,,,,,,,,,,1044.0146532000508,None,,,,,,,,,,,,,,,,,,,,,,,,,,,,,,,,,,,1043.006042700028,None,1043.006042700028,None,hyz1104,001,2021_Nov_02_1543,FigureTest,2021.2.1,59.90886663557054,
,0.4,,,,,Extinction\CS-1.BMP,,,,,,,,,,,,,,,,,,,,,2,0,2,0,0,15,15,14,,,,,,,,,,,,,,,,,1046.1464727999992,None,,,,,,,,,,,,,,,,,,,,,,,,,,,,,,,,,,,1045.138955500035,None,1045.138955500035,None,hyz1104,001,2021_Nov_02_1543,FigureTest,2021.2.1,59.90886663557054,
,-0.1,,,,,Extinction\CS+1.BMP,,,,,,,,,,,,,,,,,,,,,2,0,2,0,0,16,16,7,,,,,,,,,,,,,,,,,1048.1808268000023,None,,,,,,,,,,,,,,,,,,,,,,,,,,,,,,,,,,,1047.1819504000014,None,1047.1819504000014,None,hyz1104,001,2021_Nov_02_1543,FigureTest,2021.2.1,59.90886663557054,
,-0.1,,,,,Extinction\CS+1.BMP,,,,,,,,,,,,,,,,,,,,,2,0,2,0,0,17,17,9,,,,,,,,,,,,,,,,,1050.2289849000517,None,,,,,,,,,,,,,,,,,,,,,,,,,,,,,,,,,,,1049.2280552000157,None,1049.2280552000157,None,hyz1104,001,2021_Nov_02_1543,FigureTest,2021.2.1,59.90886663557054,
,-0.1,,,,,Extinction\CS+1.BMP,,,,,,,,,,,,,,,,,,,,,2,0,2,0,0,18,18,3,,,,,,,,,,,,,,,,,1052.3444492000272,None,,,,,,,,,,,,,,,,,,,,,,,,,,,,,,,,,,,1051.3444525000523,None,1051.3444525000523,None,hyz1104,001,2021_Nov_02_1543,FigureTest,2021.2.1,59.90886663557054,
,0.4,,,,,Extinction\CS-1.BMP,,,,,,,,,,,,,,,,,,,,,2,0,2,0,0,19,19,12,,,,,,,,,,,,,,,,,1054.5275743000093,None,,,,,,,,,,,,,,,,,,,,,,,,,,,,,,,,,,,1053.521589400014,None,1053.521589400014,None,hyz1104,001,2021_Nov_02_1543,FigureTest,2021.2.1,59.90886663557054,
,-0.1,Rating\ratingCS+3.png,,,,,,,,,,,,,,,,,,,,,,,,,2,0,2,0,,,,,0,0,0,0,,,,,,,,,,,,,,,1057.2885413000477,None,1057.2885413000477,None,2.1796875,1.3359732000390068,1057.2885413000477,None,,,,,,,,,,,,,,,,,,,,,,,,,,,,,,,hyz1104,001,2021_Nov_02_1543,FigureTest,2021.2.1,59.90886663557054,
,0.4,Rating\ratingCS-3.png,,,,,,,,,,,,,,,,,,,,,,,,,2,0,2,0,,,,,0,1,1,1,,,,,,,,,,,,,,,1060.1511423000484,None,1060.1511423000484,None,2.2656249999999996,0.754360800026916,1060.1511423000484,None,,,,,,,,,,,,,,,,,,,,,,,,,,,,,,,hyz1104,001,2021_Nov_02_1543,FigureTest,2021.2.1,59.90886663557054,
,,,,,,,,,,,,,,,,,,,,,,,,,,,2,0,2,0,,,,,,,,,,,,,,,,,,,,,,,,,,,,,,,,,,,,,,,,,,,,,,,,,,,,,,,,,,,,,hyz1104,001,2021_Nov_02_1543,FigureTest,2021.2.1,59.90886663557054,
