PreCondName,TrgCol,ratingName,CSName,UCSName,SoundName,Session_Condition.thisRepN,Session_Condition.thisTrialN,Session_Condition.thisN,Session_Condition.thisIndex,PreCond.thisRepN,PreCond.thisTrialN,PreCond.thisN,PreCond.thisIndex,RatingPreCond.thisRepN,RatingPreCond.thisTrialN,RatingPreCond.thisN,RatingPreCond.thisIndex,Cond.thisRepN,Cond.thisTrialN,Cond.thisN,Cond.thisIndex,RatingCond.thisRepN,RatingCond.thisTrialN,RatingCond.thisN,RatingCond.thisIndex,InstrBkg.started,TagFig.started,InstrKeyResp.started,InstrKeyResp.keys,InstrKeyResp.rt,precondBkg.started,imagePreCond.started,imagePreCond.stopped,BlankBkg.started,BlankBkg.stopped,Bkg.started,image.started,Scale.started,Scale.response,Scale.rt,fearRating.keys,fearRating.rt,InstrBkg2.started,TagFig2.started,key_resp.started,key_resp.keys,key_resp.rt,CSBkg.started,CS_image.started,UCSBkg.started,UCS_image.started,sound_1.started,CSBkg.stopped,CS_image.stopped,sound_1.stopped,UCSBkg.stopped,UCS_image.stopped,participant,session,date,expName,psychopyVersion,frameRate,
PreCondition/CS+1.BMP,-0.1,,,,,0,0,0,0,0,0,0,1,,,,,,,,,,,,,12.354380875010975,12.354380875010975,12.354380875010975,space,5.604721540992614,18.026517209014855,18.026517209014855,23.984919417009223,24.00039950001519,32.239514541986864,,,,,,,,,,,,,,,,,,,,,,,k,001,2022-12-06_13h23.33.040,FigureTest,2022.2.4,59.92072512804996,
PreCondition/CS-1.BMP,0.4,,,,,0,0,0,0,0,1,1,6,,,,,,,,,,,,,,,,,,32.239514541986864,32.239514541986864,38.23343575000763,38.25121516699437,46.33772966696415,,,,,,,,,,,,,,,,,,,,,,,k,001,2022-12-06_13h23.33.040,FigureTest,2022.2.4,59.92072512804996,
PreCondition/CS+1.BMP,-0.1,,,,,0,0,0,0,0,2,2,4,,,,,,,,,,,,,,,,,,46.33772966696415,46.33772966696415,,52.317901249974966,60.51415895897662,,,,,,,,,,,,,,,,,,,,,,,k,001,2022-12-06_13h23.33.040,FigureTest,2022.2.4,59.92072512804996,
PreCondition/CS-1.BMP,0.4,,,,,0,0,0,0,0,3,3,5,,,,,,,,,,,,,,,,,,60.51415895897662,60.51415895897662,66.48597475001588,66.50157441699412,74.72251229197718,,,,,,,,,,,,,,,,,,,,,,,k,001,2022-12-06_13h23.33.040,FigureTest,2022.2.4,59.92072512804996,
PreCondition/CS-1.BMP,0.4,,,,,0,0,0,0,0,4,4,7,,,,,,,,,,,,,,,,,,74.72251229197718,74.72251229197718,80.71908779197838,80.75002079200931,89.16124020901043,,,,,,,,,,,,,,,,,,,,,,,k,001,2022-12-06_13h23.33.040,FigureTest,2022.2.4,59.92072512804996,
PreCondition/CS+1.BMP,-0.1,,,,,0,0,0,0,0,5,5,0,,,,,,,,,,,,,,,,,,89.16124020901043,89.16124020901043,95.13632275001146,95.15273083397187,103.30494416697184,,,,,,,,,,,,,,,,,,,,,,,k,001,2022-12-06_13h23.33.040,FigureTest,2022.2.4,59.92072512804996,
PreCondition/CS+1.BMP,-0.1,,,,,0,0,0,0,0,6,6,2,,,,,,,,,,,,,,,,,,103.30494416697184,103.30494416697184,109.28686862497125,109.32036491698818,117.4661980419769,,,,,,,,,,,,,,,,,,,,,,,k,001,2022-12-06_13h23.33.040,FigureTest,2022.2.4,59.92072512804996,
PreCondition/CS-1.BMP,0.4,,,,,0,0,0,0,0,7,7,8,,,,,,,,,,,,,,,,,,117.4661980419769,117.4661980419769,123.45403070899192,123.46977512497688,131.62215987499803,,,,,,,,,,,,,,,,,,,,,,,k,001,2022-12-06_13h23.33.040,FigureTest,2022.2.4,59.92072512804996,
PreCondition/CS+1.BMP,-0.1,,,,,0,0,0,0,0,8,8,3,,,,,,,,,,,,,,,,,,131.62215987499803,131.62215987499803,137.58929820900084,137.62078800000018,145.6814967499813,,,,,,,,,,,,,,,,,,,,,,,k,001,2022-12-06_13h23.33.040,FigureTest,2022.2.4,59.92072512804996,
PreCondition/CS-1.BMP,0.4,,,,,0,0,0,0,0,9,9,9,,,,,,,,,,,,,,,,,,145.6814967499813,145.6814967499813,151.65401112497784,151.70184604200767,160.12857204198372,,,,,,,,,,,,,,,,,,,,,,,k,001,2022-12-06_13h23.33.040,FigureTest,2022.2.4,59.92072512804996,
,-0.1,Instructions_EN/ratingCS+1.png,,,,0,0,0,0,,,,,0,0,0,0,,,,,,,,,,,,,,,,,,,160.12857204198372,160.12857204198372,160.12857204198372,None,None,1,6.729133457993157,,,,,,,,,,,,,,,,k,001,2022-12-06_13h23.33.040,FigureTest,2022.2.4,59.92072512804996,
,0.4,Instructions_EN/ratingCS-1.png,,,,0,0,0,0,,,,,0,1,1,1,,,,,,,,,,,,,,,,,,,166.89868791698245,166.89868791698245,166.89868791698245,None,None,1,1.1245307070203125,,,,,,,,,,,,,,,,k,001,2022-12-06_13h23.33.040,FigureTest,2022.2.4,59.92072512804996,
,0.4,,Condition/CS-1.BMP,Condition/black.PNG,Sound/silent.wav,0,0,0,0,,,,,,,,,0,0,0,20,,,,,,,,,,,,,178.51353762496728,186.61561420897488,,,,,,,,168.07146204198943,168.07146204198943,168.07146204198943,space,2.251487374014687,170.3745736249839,170.3745736249839,,,,,,,,,k,001,2022-12-06_13h23.33.040,FigureTest,2022.2.4,59.92072512804996,
,0.9,,Condition/CS+1.BMP,Condition/UCS1.BMP,Sound/scream1.wav,0,0,0,0,,,,,,,,,0,1,1,4,,,,,,,,,,,,,193.6214192089974,201.6612762499717,,,,,,,,,,,,,186.61561420897488,186.61561420897488,192.68278437497793,192.68278437497793,192.68807333300356,,,,,,k,001,2022-12-06_13h23.33.040,FigureTest,2022.2.4,59.92072512804996,
,0.4,,Condition/CS-1.BMP,Condition/black.PNG,Sound/silent.wav,0,0,0,0,,,,,,,,,0,2,2,21,,,,,,,,,,,,,209.50958820898086,217.8334883750067,,,,,,,,,,,,,201.6612762499717,201.6612762499717,,,,,,,,,k,001,2022-12-06_13h23.33.040,FigureTest,2022.2.4,59.92072512804996,
,0.9,,Condition/CS+1.BMP,Condition/UCS1.BMP,Sound/scream1.wav,0,0,0,0,,,,,,,,,0,3,3,8,,,,,,,,,,,,,224.8394187919912,233.1404655840015,,,,,,,,,,,,,217.8334883750067,217.8334883750067,223.9043290420086,223.9043290420086,223.9067348749959,,,,,,k,001,2022-12-06_13h23.33.040,FigureTest,2022.2.4,59.92072512804996,
,0.9,,Condition/CS+1.BMP,Condition/UCS1.BMP,Sound/scream1.wav,0,0,0,0,,,,,,,,,0,4,4,13,,,,,,,,,,,,,240.15764108399162,248.6769057919737,,,,,,,,,,,,,233.1404655840015,233.1404655840015,239.143469291972,239.143469291972,239.14071425857256,239.143469291972,239.143469291972,240.14005016698502,,,k,001,2022-12-06_13h23.33.040,FigureTest,2022.2.4,59.92072512804996,
,0.9,,Condition/CS+1.BMP,Condition/UCS1.BMP,Sound/scream1.wav,0,0,0,0,,,,,,,,,0,5,5,3,,,,,,,,,,,,,255.67375595896738,263.95724104199326,,,,,,,,,,,,,248.6769057919737,248.6769057919737,254.69022712501464,254.69022712501464,254.69078200861114,,,,,,k,001,2022-12-06_13h23.33.040,FigureTest,2022.2.4,59.92072512804996,
,0.9,,Condition/CS+1.BMP,Condition/UCS1.BMP,Sound/scream1.wav,0,0,0,0,,,,,,,,,0,6,6,11,,,,,,,,,,,,,270.9577795419609,279.0408006669604,,,,,,,,,,,,,263.95724104199326,263.95724104199326,269.9571217090124,269.9571217090124,269.9584527585888,,,270.9577795419609,270.9577795419609,270.9577795419609,k,001,2022-12-06_13h23.33.040,FigureTest,2022.2.4,59.92072512804996,
,0.9,,Condition/CS+1.BMP,Condition/UCS1.BMP,Sound/scream1.wav,0,0,0,0,,,,,,,,,0,7,7,9,,,,,,,,,,,,,286.0409626250039,294.291119624977,,,,,,,,,,,,,279.0408006669604,279.0408006669604,285.0410499169957,285.0410499169957,285.04161159156354,285.0410499169957,285.0410499169957,,,,k,001,2022-12-06_13h23.33.040,FigureTest,2022.2.4,59.92072512804996,
,0.9,,Condition/CS+1.BMP,Condition/UCS1.BMP,Sound/scream1.wav,0,0,0,0,,,,,,,,,0,8,8,14,,,,,,,,,,,,,301.2916903339792,309.52717308397405,,,,,,,,,,,,,294.291119624977,294.291119624977,300.292525249999,300.292525249999,300.29175817556677,300.292525249999,300.292525249999,301.2916903339792,301.2916903339792,301.2916903339792,k,001,2022-12-06_13h23.33.040,FigureTest,2022.2.4,59.92072512804996,
,0.4,,Condition/CS-1.BMP,Condition/black.PNG,Sound/silent.wav,0,0,0,0,,,,,,,,,0,9,9,25,,,,,,,,,,,,,317.60459199995967,325.7980716669699,,,,,,,,,,,,,309.52717308397405,309.52717308397405,,,,,,,,,k,001,2022-12-06_13h23.33.040,FigureTest,2022.2.4,59.92072512804996,
,0.4,,Condition/CS-1.BMP,Condition/black.PNG,Sound/silent.wav,0,0,0,0,,,,,,,,,0,10,10,28,,,,,,,,,,,,,333.6433579589939,341.9879714999697,,,,,,,,,,,,,325.7980716669699,325.7980716669699,,,,,,,,,k,001,2022-12-06_13h23.33.040,FigureTest,2022.2.4,59.92072512804996,
,0.4,,Condition/CS-1.BMP,Condition/black.PNG,Sound/silent.wav,0,0,0,0,,,,,,,,,0,11,11,29,,,,,,,,,,,,,349.82170012500137,358.03289004199905,,,,,,,,,,,,,341.9879714999697,341.9879714999697,,,,,,,,,k,001,2022-12-06_13h23.33.040,FigureTest,2022.2.4,59.92072512804996,
,0.9,,Condition/CS+1.BMP,Condition/UCS1.BMP,Sound/scream1.wav,0,0,0,0,,,,,,,,,0,12,12,5,,,,,,,,,,,,,365.02594216697617,373.24537799996324,,,,,,,,,,,,,358.03289004199905,358.03289004199905,364.1048744589789,364.1048744589789,364.1107346249628,,,,,,k,001,2022-12-06_13h23.33.040,FigureTest,2022.2.4,59.92072512804996,
,0.4,,Condition/CS-1.BMP,Condition/black.PNG,Sound/silent.wav,0,0,0,0,,,,,,,,,0,13,13,22,,,,,,,,,,,,,381.0175072500133,389.33777379198,,,,,,,,,,,,,373.24537799996324,373.24537799996324,,,,,,,,,k,001,2022-12-06_13h23.33.040,FigureTest,2022.2.4,59.92072512804996,
,0.9,,Condition/CS+1.BMP,Condition/UCS1.BMP,Sound/scream1.wav,0,0,0,0,,,,,,,,,0,14,14,12,,,,,,,,,,,,,396.3270853749709,404.462141166965,,,,,,,,,,,,,389.33777379198,389.33777379198,395.40704816696234,395.40704816696234,395.41122741700383,,,,,,k,001,2022-12-06_13h23.33.040,FigureTest,2022.2.4,59.92072512804996,
,0.9,,Condition/CS+1.BMP,Condition/UCS1.BMP,Sound/scream1.wav,0,0,0,0,,,,,,,,,0,15,15,7,,,,,,,,,,,,,411.4611392499646,419.6150979999802,,,,,,,,,,,,,404.462141166965,404.462141166965,410.46157579199644,410.46157579199644,410.46115959159795,410.46157579199644,410.46157579199644,411.4611392499646,411.4611392499646,411.4611392499646,k,001,2022-12-06_13h23.33.040,FigureTest,2022.2.4,59.92072512804996,
,0.4,,Condition/CS-1.BMP,Condition/black.PNG,Sound/silent.wav,0,0,0,0,,,,,,,,,0,16,16,24,,,,,,,,,,,,,427.4209917089902,435.5532804169925,,,,,,,,,,,,,419.6150979999802,419.6150979999802,,,,,,,,,k,001,2022-12-06_13h23.33.040,FigureTest,2022.2.4,59.92072512804996,
,-0.1,,Condition/CS+1.BMP,Condition/black.PNG,Sound/silent.wav,0,0,0,0,,,,,,,,,0,17,17,2,,,,,,,,,,,,,443.4155636249925,451.59475345897954,,,,,,,,,,,,,435.5532804169925,435.5532804169925,,,,,,,,,k,001,2022-12-06_13h23.33.040,FigureTest,2022.2.4,59.92072512804996,
,0.4,,Condition/CS-1.BMP,Condition/black.PNG,Sound/silent.wav,0,0,0,0,,,,,,,,,0,18,18,27,,,,,,,,,,,,,459.4095740420162,467.6058738749707,,,,,,,,,,,,,451.59475345897954,451.59475345897954,,,,,,,,,k,001,2022-12-06_13h23.33.040,FigureTest,2022.2.4,59.92072512804996,
,0.9,,Condition/CS+1.BMP,Condition/UCS1.BMP,Sound/scream1.wav,0,0,0,0,,,,,,,,,0,19,19,6,,,,,,,,,,,,,474.6123825419927,483.08463670901256,,,,,,,,,,,,,467.6058738749707,467.6058738749707,473.7066754999687,473.7066754999687,473.69642647519936,,,,,,k,001,2022-12-06_13h23.33.040,FigureTest,2022.2.4,59.92072512804996,
,0.4,,Condition/CS-1.BMP,Condition/black.PNG,Sound/silent.wav,0,0,0,0,,,,,,,,,0,20,20,26,,,,,,,,,,,,,490.89255212497665,499.1890279999934,,,,,,,,,,,,,483.08463670901256,483.08463670901256,,,,,,,,,k,001,2022-12-06_13h23.33.040,FigureTest,2022.2.4,59.92072512804996,
,0.4,,Condition/CS-1.BMP,Condition/black.PNG,Sound/silent.wav,0,0,0,0,,,,,,,,,0,21,21,18,,,,,,,,,,,,,507.0432315840153,515.3745837499737,,,,,,,,,,,,,499.1890279999934,499.1890279999934,,,,,,,,,k,001,2022-12-06_13h23.33.040,FigureTest,2022.2.4,59.92072512804996,
,0.9,,Condition/CS+1.BMP,Condition/UCS1.BMP,Sound/scream1.wav,0,0,0,0,,,,,,,,,0,22,22,10,,,,,,,,,,,,,522.362834333966,530.4835844999761,,,,,,,,,,,,,515.3745837499737,515.3745837499737,521.4451801250107,521.4451801250107,521.4481282499619,,,,,,k,001,2022-12-06_13h23.33.040,FigureTest,2022.2.4,59.92072512804996,
,0.4,,Condition/CS-1.BMP,Condition/black.PNG,Sound/silent.wav,0,0,0,0,,,,,,,,,0,23,23,19,,,,,,,,,,,,,538.2202319169883,546.4523434169823,,,,,,,,,,,,,530.4835844999761,530.4835844999761,,,,,,,,,k,001,2022-12-06_13h23.33.040,FigureTest,2022.2.4,59.92072512804996,
,0.4,,Condition/CS-1.BMP,Condition/black.PNG,Sound/silent.wav,0,0,0,0,,,,,,,,,0,24,24,15,,,,,,,,,,,,,554.3423242089921,562.8245416249847,,,,,,,,,,,,,546.4523434169823,546.4523434169823,,,,,,,,,k,001,2022-12-06_13h23.33.040,FigureTest,2022.2.4,59.92072512804996,
,0.4,,Condition/CS-1.BMP,Condition/black.PNG,Sound/silent.wav,0,0,0,0,,,,,,,,,0,25,25,16,,,,,,,,,,,,,570.6416430419777,578.8575652089785,,,,,,,,,,,,,562.8245416249847,562.8245416249847,,,,,,,,,k,001,2022-12-06_13h23.33.040,FigureTest,2022.2.4,59.92072512804996,
,0.4,,Condition/CS-1.BMP,Condition/black.PNG,Sound/silent.wav,0,0,0,0,,,,,,,,,0,26,26,17,,,,,,,,,,,,,586.7601142500062,594.9921149589936,,,,,,,,,,,,,578.8575652089785,578.8575652089785,,,,,,,,,k,001,2022-12-06_13h23.33.040,FigureTest,2022.2.4,59.92072512804996,
,-0.1,,Condition/CS+1.BMP,Condition/black.PNG,Sound/silent.wav,0,0,0,0,,,,,,,,,0,27,27,0,,,,,,,,,,,,,602.9191246249829,611.1225894590025,,,,,,,,,,,,,594.9921149589936,594.9921149589936,,,,,,,,,k,001,2022-12-06_13h23.33.040,FigureTest,2022.2.4,59.92072512804996,
,-0.1,,Condition/CS+1.BMP,Condition/black.PNG,Sound/silent.wav,0,0,0,0,,,,,,,,,0,28,28,1,,,,,,,,,,,,,618.954624291975,627.2269780840143,,,,,,,,,,,,,611.1225894590025,611.1225894590025,,,,,,,,,k,001,2022-12-06_13h23.33.040,FigureTest,2022.2.4,59.92072512804996,
,0.4,,Condition/CS-1.BMP,Condition/black.PNG,Sound/silent.wav,0,0,0,0,,,,,,,,,0,29,29,23,,,,,,,,,,,,,635.1315457089804,643.3721448750002,,,,,,,,,,,,,627.2269780840143,627.2269780840143,,,,,,,,,k,001,2022-12-06_13h23.33.040,FigureTest,2022.2.4,59.92072512804996,
,-0.1,Instructions_EN/ratingCS+1.png,,,,0,0,0,0,,,,,,,,,,,,,0,0,0,0,,,,,,,,,,,643.3721448750002,643.3721448750002,643.3721448750002,None,None,6,5.262048416014295,,,,,,,,,,,,,,,,k,001,2022-12-06_13h23.33.040,FigureTest,2022.2.4,59.92072512804996,
,0.4,Instructions_EN/ratingCS-1.png,,,,0,0,0,0,,,,,,,,,,,,,0,1,1,1,,,,,,,,,,,648.6816610000096,648.6816610000096,648.6816610000096,None,None,6,0.3907347909989767,,,,,,,,,,,,,,,,k,001,2022-12-06_13h23.33.040,FigureTest,2022.2.4,59.92072512804996,
,,,,,,0,0,0,0,,,,,,,,,,,,,,,,,,,,,,,,,,,,,,,,,,,,,,,,,,,,,,,,,k,001,2022-12-06_13h23.33.040,FigureTest,2022.2.4,59.92072512804996,
PreCondition/CS+2.BMP,-0.1,,,,,1,0,1,0,0,0,0,2,,,,,,,,,,,,,649.1171303750016,649.1171303750016,649.1171303750016,space,0.7782105410005897,649.9285638339934,649.9285638339934,655.9012907089782,655.917212624976,664.1391714999918,,,,,,,,,,,,,,,,,,,,,,,k,001,2022-12-06_13h23.33.040,FigureTest,2022.2.4,59.92072512804996,
PreCondition/CS-2.BMP,0.4,,,,,1,0,1,0,0,1,1,6,,,,,,,,,,,,,,,,,,664.1391714999918,664.1391714999918,670.1328552499763,670.1494032089831,678.337718499999,,,,,,,,,,,,,,,,,,,,,,,k,001,2022-12-06_13h23.33.040,FigureTest,2022.2.4,59.92072512804996,
PreCondition/CS-2.BMP,0.4,,,,,1,0,1,0,0,2,2,8,,,,,,,,,,,,,,,,,,678.337718499999,678.337718499999,684.3175914589665,684.3516927089659,692.5734710000106,,,,,,,,,,,,,,,,,,,,,,,k,001,2022-12-06_13h23.33.040,FigureTest,2022.2.4,59.92072512804996,
PreCondition/CS+2.BMP,-0.1,,,,,1,0,1,0,0,3,3,4,,,,,,,,,,,,,,,,,,692.5734710000106,692.5734710000106,698.5520379169611,698.5852789169876,706.6883007090073,,,,,,,,,,,,,,,,,,,,,,,k,001,2022-12-06_13h23.33.040,FigureTest,2022.2.4,59.92072512804996,
PreCondition/CS-2.BMP,0.4,,,,,1,0,1,0,0,4,4,7,,,,,,,,,,,,,,,,,,706.6883007090073,706.6883007090073,712.6692913339939,712.6844307089923,720.8973207919626,,,,,,,,,,,,,,,,,,,,,,,k,001,2022-12-06_13h23.33.040,FigureTest,2022.2.4,59.92072512804996,
PreCondition/CS+2.BMP,-0.1,,,,,1,0,1,0,0,5,5,3,,,,,,,,,,,,,,,,,,720.8973207919626,720.8973207919626,726.8692716669757,726.8858519999776,735.3877933339681,,,,,,,,,,,,,,,,,,,,,,,k,001,2022-12-06_13h23.33.040,FigureTest,2022.2.4,59.92072512804996,
PreCondition/CS+2.BMP,-0.1,,,,,1,0,1,0,0,6,6,0,,,,,,,,,,,,,,,,,,735.3877933339681,735.3877933339681,741.3695435000118,741.402389750001,749.5547497919761,,,,,,,,,,,,,,,,,,,,,,,k,001,2022-12-06_13h23.33.040,FigureTest,2022.2.4,59.92072512804996,
PreCondition/CS+2.BMP,-0.1,,,,,1,0,1,0,0,7,7,1,,,,,,,,,,,,,,,,,,749.5547497919761,749.5547497919761,755.5371181669761,755.5532151669613,763.7243526249658,,,,,,,,,,,,,,,,,,,,,,,k,001,2022-12-06_13h23.33.040,FigureTest,2022.2.4,59.92072512804996,
PreCondition/CS-2.BMP,0.4,,,,,1,0,1,0,0,8,8,9,,,,,,,,,,,,,,,,,,763.7243526249658,763.7243526249658,769.7034304999979,769.737435417017,778.122626583965,,,,,,,,,,,,,,,,,,,,,,,k,001,2022-12-06_13h23.33.040,FigureTest,2022.2.4,59.92072512804996,
PreCondition/CS-2.BMP,0.4,,,,,1,0,1,0,0,9,9,5,,,,,,,,,,,,,,,,,,778.122626583965,778.122626583965,784.1039789170027,784.1362466249848,792.445094374998,,,,,,,,,,,,,,,,,,,,,,,k,001,2022-12-06_13h23.33.040,FigureTest,2022.2.4,59.92072512804996,
,-0.1,Instructions_EN/ratingCS+2.png,,,,1,0,1,0,,,,,0,0,0,0,,,,,,,,,,,,,,,,,,,792.445094374998,792.445094374998,792.445094374998,None,None,1,30.525496416026726,,,,,,,,,,,,,,,,k,001,2022-12-06_13h23.33.040,FigureTest,2022.2.4,59.92072512804996,
,0.4,Instructions_EN/ratingCS-2.png,,,,1,0,1,0,,,,,0,1,1,1,,,,,,,,,,,,,,,,,,,823.01592062501,823.01592062501,823.01592062501,None,None,1,0.4214842080255039,,,,,,,,,,,,,,,,k,001,2022-12-06_13h23.33.040,FigureTest,2022.2.4,59.92072512804996,
,0.4,,Condition/CS-2.BMP,Condition/black.PNG,Sound/silent.wav,1,0,1,0,,,,,,,,,0,0,0,27,,,,,,,,,,,,,832.7171733750147,840.9846093339729,,,,,,,,823.4728987920098,823.4728987920098,823.4728987920098,space,1.099020207009744,824.602972291992,824.602972291992,,,,,,,,,k,001,2022-12-06_13h23.33.040,FigureTest,2022.2.4,59.92072512804996,
,0.9,,Condition/CS+2.BMP,Condition/UCS2.BMP,Sound/scream1.wav,1,0,1,0,,,,,,,,,0,1,1,11,,,,,,,,,,,,,847.9875208750018,856.29093774996,,,,,,,,,,,,,840.9846093339729,840.9846093339729,847.0529948339681,847.0529948339681,847.0556189169874,,,,,,k,001,2022-12-06_13h23.33.040,FigureTest,2022.2.4,59.92072512804996,
,0.9,,Condition/CS+2.BMP,Condition/UCS2.BMP,Sound/scream1.wav,1,0,1,0,,,,,,,,,0,2,2,9,,,,,,,,,,,,,863.2881256249966,871.7104162499891,,,,,,,,,,,,,856.29093774996,856.29093774996,862.2891120839631,862.2891120839631,862.2892905915854,,,,,,k,001,2022-12-06_13h23.33.040,FigureTest,2022.2.4,59.92072512804996,
,0.4,,Condition/CS-2.BMP,Condition/black.PNG,Sound/silent.wav,1,0,1,0,,,,,,,,,0,3,3,19,,,,,,,,,,,,,879.5914387499797,887.7850891670096,,,,,,,,,,,,,871.7104162499891,871.7104162499891,,,,,,,,,k,001,2022-12-06_13h23.33.040,FigureTest,2022.2.4,59.92072512804996,
,-0.1,,Condition/CS+2.BMP,Condition/black.PNG,Sound/silent.wav,1,0,1,0,,,,,,,,,0,4,4,1,,,,,,,,,,,,,895.7267037919955,903.9858288340038,,,,,,,,,,,,,887.7850891670096,887.7850891670096,,,,,,,,,k,001,2022-12-06_13h23.33.040,FigureTest,2022.2.4,59.92072512804996,
,0.4,,Condition/CS-2.BMP,Condition/black.PNG,Sound/silent.wav,1,0,1,0,,,,,,,,,0,5,5,29,,,,,,,,,,,,,911.8029094999656,920.0529124169843,,,,,,,,,,,,,903.9858288340038,903.9858288340038,,,,,,,,,k,001,2022-12-06_13h23.33.040,FigureTest,2022.2.4,59.92072512804996,
,-0.1,,Condition/CS+2.BMP,Condition/black.PNG,Sound/silent.wav,1,0,1,0,,,,,,,,,0,6,6,0,,,,,,,,,,,,,927.900428666966,936.1522175419959,,,,,,,,,,,,,920.0529124169843,920.0529124169843,,,,,,,,,k,001,2022-12-06_13h23.33.040,FigureTest,2022.2.4,59.92072512804996,
,0.9,,Condition/CS+2.BMP,Condition/UCS2.BMP,Sound/scream1.wav,1,0,1,0,,,,,,,,,0,7,7,3,,,,,,,,,,,,,943.1572872499819,951.441873083997,,,,,,,,,,,,,936.1522175419959,936.1522175419959,942.2270184999797,942.2270184999797,942.2241135420045,,,,,,k,001,2022-12-06_13h23.33.040,FigureTest,2022.2.4,59.92072512804996,
,0.9,,Condition/CS+2.BMP,Condition/UCS2.BMP,Sound/scream1.wav,1,0,1,0,,,,,,,,,0,8,8,4,,,,,,,,,,,,,958.457730916969,966.6076976250042,,,,,,,,,,,,,951.441873083997,951.441873083997,957.4412236249773,957.4412236249773,957.4418180915876,957.4412236249773,957.4412236249773,,958.4410194169614,958.4410194169614,k,001,2022-12-06_13h23.33.040,FigureTest,2022.2.4,59.92072512804996,
,-0.1,,Condition/CS+2.BMP,Condition/black.PNG,Sound/silent.wav,1,0,1,0,,,,,,,,,0,9,9,2,,,,,,,,,,,,,974.372292916989,982.4311055419967,,,,,,,,,,,,,966.6076976250042,966.6076976250042,,,,974.372292916989,974.372292916989,,,,k,001,2022-12-06_13h23.33.040,FigureTest,2022.2.4,59.92072512804996,
,0.9,,Condition/CS+2.BMP,Condition/UCS2.BMP,Sound/scream1.wav,1,0,1,0,,,,,,,,,0,10,10,5,,,,,,,,,,,,,989.4419072919991,997.686006666976,,,,,,,,,,,,,982.4311055419967,982.4311055419967,988.5182387499954,988.5182387499954,988.5096922165598,,,,,,k,001,2022-12-06_13h23.33.040,FigureTest,2022.2.4,59.92072512804996,
,0.4,,Condition/CS-2.BMP,Condition/black.PNG,Sound/silent.wav,1,0,1,0,,,,,,,,,0,11,11,22,,,,,,,,,,,,,1005.5153265839908,1013.6479389590095,,,,,,,,,,,,,997.686006666976,997.686006666976,,,,,,,,,k,001,2022-12-06_13h23.33.040,FigureTest,2022.2.4,59.92072512804996,
,0.9,,Condition/CS+2.BMP,Condition/UCS2.BMP,Sound/scream1.wav,1,0,1,0,,,,,,,,,0,12,12,8,,,,,,,,,,,,,1020.6414283749764,1028.8440585419885,,,,,,,,,,,,,1013.6479389590095,1013.6479389590095,1019.7144227919634,1019.7144227919634,1019.7100123330019,,,,,,k,001,2022-12-06_13h23.33.040,FigureTest,2022.2.4,59.92072512804996,
,0.9,,Condition/CS+2.BMP,Condition/UCS2.BMP,Sound/scream1.wav,1,0,1,0,,,,,,,,,0,13,13,7,,,,,,,,,,,,,1035.859107458964,1044.0790398750105,,,,,,,,,,,,,1028.8440585419885,1028.8440585419885,1034.8628412089893,1034.8628412089893,1034.8606638835977,,,,,,k,001,2022-12-06_13h23.33.040,FigureTest,2022.2.4,59.92072512804996,
,0.4,,Condition/CS-2.BMP,Condition/black.PNG,Sound/silent.wav,1,0,1,0,,,,,,,,,0,14,14,24,,,,,,,,,,,,,1051.8113166249823,1060.0321641250048,,,,,,,,,,,,,1044.0790398750105,1044.0790398750105,,,,,,,,,k,001,2022-12-06_13h23.33.040,FigureTest,2022.2.4,59.92072512804996,
,0.4,,Condition/CS-2.BMP,Condition/black.PNG,Sound/silent.wav,1,0,1,0,,,,,,,,,0,15,15,28,,,,,,,,,,,,,1067.8551469169906,1075.954796416976,,,,,,,,,,,,,1060.0321641250048,1060.0321641250048,,,,,,,,,k,001,2022-12-06_13h23.33.040,FigureTest,2022.2.4,59.92072512804996,
,0.9,,Condition/CS+2.BMP,Condition/UCS2.BMP,Sound/scream1.wav,1,0,1,0,,,,,,,,,0,16,16,10,,,,,,,,,,,,,1082.9445233750157,1091.3469622500124,,,,,,,,,,,,,1075.954796416976,1075.954796416976,1082.0095427919878,1082.0095427919878,1082.0115331669804,,,,,,k,001,2022-12-06_13h23.33.040,FigureTest,2022.2.4,59.92072512804996,
,0.9,,Condition/CS+2.BMP,Condition/UCS2.BMP,Sound/scream1.wav,1,0,1,0,,,,,,,,,0,17,17,13,,,,,,,,,,,,,1098.3610752499662,1106.6993339170003,,,,,,,,,,,,,1091.3469622500124,1091.3469622500124,1097.362735166971,1097.362735166971,1097.3602465505596,,,,,,k,001,2022-12-06_13h23.33.040,FigureTest,2022.2.4,59.92072512804996,
,0.4,,Condition/CS-2.BMP,Condition/black.PNG,Sound/silent.wav,1,0,1,0,,,,,,,,,0,18,18,26,,,,,,,,,,,,,1114.4341905839974,1122.8204075419926,,,,,,,,,,,,,1106.6993339170003,1106.6993339170003,,,,,,,,,k,001,2022-12-06_13h23.33.040,FigureTest,2022.2.4,59.92072512804996,
,0.9,,Condition/CS+2.BMP,Condition/UCS2.BMP,Sound/scream1.wav,1,0,1,0,,,,,,,,,0,19,19,12,,,,,,,,,,,,,1129.8109030839987,1138.0652553339605,,,,,,,,,,,,,1122.8204075419926,1122.8204075419926,1128.8887216669973,1128.8887216669973,1128.8956188835787,,,,,,k,001,2022-12-06_13h23.33.040,FigureTest,2022.2.4,59.92072512804996,
,0.9,,Condition/CS+2.BMP,Condition/UCS2.BMP,Sound/scream1.wav,1,0,1,0,,,,,,,,,0,20,20,6,,,,,,,,,,,,,1145.0780863749678,1153.1773307090043,,,,,,,,,,,,,1138.0652553339605,1138.0652553339605,1144.0793152920087,1144.0793152920087,1144.079134466569,,,,,,k,001,2022-12-06_13h23.33.040,FigureTest,2022.2.4,59.92072512804996,
,0.4,,Condition/CS-2.BMP,Condition/black.PNG,Sound/silent.wav,1,0,1,0,,,,,,,,,0,21,21,20,,,,,,,,,,,,,1160.8545258339727,1169.1274022919824,,,,,,,,,,,,,1153.1773307090043,1153.1773307090043,,,,,,,,,k,001,2022-12-06_13h23.33.040,FigureTest,2022.2.4,59.92072512804996,
,0.4,,Condition/CS-2.BMP,Condition/black.PNG,Sound/silent.wav,1,0,1,0,,,,,,,,,0,22,22,17,,,,,,,,,,,,,1176.872001709009,1184.9428023339715,,,,,,,,,,,,,1169.1274022919824,1169.1274022919824,,,,,,,,,k,001,2022-12-06_13h23.33.040,FigureTest,2022.2.4,59.92072512804996,
,0.4,,Condition/CS-2.BMP,Condition/black.PNG,Sound/silent.wav,1,0,1,0,,,,,,,,,0,23,23,18,,,,,,,,,,,,,1192.7487937500118,1201.073811749986,,,,,,,,,,,,,1184.9428023339715,1184.9428023339715,,,,,,,,,k,001,2022-12-06_13h23.33.040,FigureTest,2022.2.4,59.92072512804996,
,0.4,,Condition/CS-2.BMP,Condition/black.PNG,Sound/silent.wav,1,0,1,0,,,,,,,,,0,24,24,21,,,,,,,,,,,,,1208.9142792919884,1217.344578334014,,,,,,,,,,,,,1201.073811749986,1201.073811749986,,,,,,,,,k,001,2022-12-06_13h23.33.040,FigureTest,2022.2.4,59.92072512804996,
,0.4,,Condition/CS-2.BMP,Condition/black.PNG,Sound/silent.wav,1,0,1,0,,,,,,,,,0,25,25,23,,,,,,,,,,,,,1225.200650417013,1233.4589261669898,,,,,,,,,,,,,1217.344578334014,1217.344578334014,,,,,,,,,k,001,2022-12-06_13h23.33.040,FigureTest,2022.2.4,59.92072512804996,
,0.4,,Condition/CS-2.BMP,Condition/black.PNG,Sound/silent.wav,1,0,1,0,,,,,,,,,0,26,26,16,,,,,,,,,,,,,1241.5327859589597,1249.6854526249808,,,,,,,,,,,,,1233.4589261669898,1233.4589261669898,,,,,,,,,k,001,2022-12-06_13h23.33.040,FigureTest,2022.2.4,59.92072512804996,
,0.4,,Condition/CS-2.BMP,Condition/black.PNG,Sound/silent.wav,1,0,1,0,,,,,,,,,0,27,27,15,,,,,,,,,,,,,1257.8264921669615,1266.026846041961,,,,,,,,,,,,,1249.6854526249808,1249.6854526249808,,,,,,,,,k,001,2022-12-06_13h23.33.040,FigureTest,2022.2.4,59.92072512804996,
,0.9,,Condition/CS+2.BMP,Condition/UCS2.BMP,Sound/scream1.wav,1,0,1,0,,,,,,,,,0,28,28,14,,,,,,,,,,,,,1273.032121458964,1281.3528541249689,,,,,,,,,,,,,1266.026846041961,1266.026846041961,1272.1285576249938,1272.1285576249938,1272.1155738415896,,,,,,k,001,2022-12-06_13h23.33.040,FigureTest,2022.2.4,59.92072512804996,
,0.4,,Condition/CS-2.BMP,Condition/black.PNG,Sound/silent.wav,1,0,1,0,,,,,,,,,0,29,29,25,,,,,,,,,,,,,1289.1261419169605,1297.5278962919838,,,,,,,,,,,,,1281.3528541249689,1281.3528541249689,,,,,,,,,k,001,2022-12-06_13h23.33.040,FigureTest,2022.2.4,59.92072512804996,
,-0.1,Instructions_EN/ratingCS+2.png,,,,1,0,1,0,,,,,,,,,,,,,0,0,0,0,,,,,,,,,,,1297.5278962919838,1297.5278962919838,1297.5278962919838,None,None,1,22.761105332989246,,,,,,,,,,,,,,,,k,001,2022-12-06_13h23.33.040,FigureTest,2022.2.4,59.92072512804996,
,0.4,Instructions_EN/ratingCS-2.png,,,,1,0,1,0,,,,,,,,,,,,,0,1,1,1,,,,,,,,,,,1320.3725321249804,1320.3725321249804,1320.3725321249804,None,None,1,0.28451979102101177,,,,,,,,,,,,,,,,k,001,2022-12-06_13h23.33.040,FigureTest,2022.2.4,59.92072512804996,
,,,,,,1,0,1,0,,,,,,,,,,,,,,,,,,,,,,,,,,,,,,,,,,,,,,,,,,,,,,,,,k,001,2022-12-06_13h23.33.040,FigureTest,2022.2.4,59.92072512804996,
PreCondition/CS+4.BMP,0.4,,,,,2,0,2,0,0,0,0,5,,,,,,,,,,,,,1320.7078994589974,1320.7078994589974,1320.7078994589974,space,0.9912714999518357,1321.7309895000071,1321.7309895000071,1327.7003739170032,1327.7334022920113,1336.3879753749934,,,,,,,,,,,,,,,,,,,,,,,k,001,2022-12-06_13h23.33.040,FigureTest,2022.2.4,59.92072512804996,
PreCondition/CS+3.BMP,-0.1,,,,,2,0,2,0,0,1,1,3,,,,,,,,,,,,,,,,,,1336.3879753749934,1336.3879753749934,1342.3671598749934,1342.4008730839705,1350.8214671249734,,,,,,,,,,,,,,,,,,,,,,,k,001,2022-12-06_13h23.33.040,FigureTest,2022.2.4,59.92072512804996,
PreCondition/CS+3.BMP,-0.1,,,,,2,0,2,0,0,2,2,2,,,,,,,,,,,,,,,,,,1350.8214671249734,1350.8214671249734,1356.8172660839627,1356.834320666967,1365.0206358339638,,,,,,,,,,,,,,,,,,,,,,,k,001,2022-12-06_13h23.33.040,FigureTest,2022.2.4,59.92072512804996,
PreCondition/CS+3.BMP,-0.1,,,,,2,0,2,0,0,3,3,1,,,,,,,,,,,,,,,,,,1365.0206358339638,1365.0206358339638,1371.0184401670122,1371.0347835000139,1379.2043844999862,,,,,,,,,,,,,,,,,,,,,,,k,001,2022-12-06_13h23.33.040,FigureTest,2022.2.4,59.92072512804996,
PreCondition/CS+4.BMP,0.4,,,,,2,0,2,0,0,4,4,9,,,,,,,,,,,,,,,,,,1379.2043844999862,1379.2043844999862,1385.1852147089667,1385.2017281670123,1393.3076647919952,,,,,,,,,,,,,,,,,,,,,,,k,001,2022-12-06_13h23.33.040,FigureTest,2022.2.4,59.92072512804996,
PreCondition/CS+3.BMP,-0.1,,,,,2,0,2,0,0,5,5,0,,,,,,,,,,,,,,,,,,1393.3076647919952,1393.3076647919952,1399.2850570419687,1399.3182999169803,1407.6216174589936,,,,,,,,,,,,,,,,,,,,,,,k,001,2022-12-06_13h23.33.040,FigureTest,2022.2.4,59.92072512804996,
PreCondition/CS+4.BMP,0.4,,,,,2,0,2,0,0,6,6,8,,,,,,,,,,,,,,,,,,1407.6216174589936,1407.6216174589936,1413.6022789169801,1413.6190024169628,1422.0935109169804,,,,,,,,,,,,,,,,,,,,,,,k,001,2022-12-06_13h23.33.040,FigureTest,2022.2.4,59.92072512804996,
PreCondition/CS+4.BMP,0.4,,,,,2,0,2,0,0,7,7,7,,,,,,,,,,,,,,,,,,1422.0935109169804,1422.0935109169804,1428.0698070419603,1428.084909792,1436.353862249991,,,,,,,,,,,,,,,,,,,,,,,k,001,2022-12-06_13h23.33.040,FigureTest,2022.2.4,59.92072512804996,
PreCondition/CS+4.BMP,0.4,,,,,2,0,2,0,0,8,8,6,,,,,,,,,,,,,,,,,,1436.353862249991,1436.353862249991,1442.3361704999697,1442.352904749976,1450.6387021249975,,,,,,,,,,,,,,,,,,,,,,,k,001,2022-12-06_13h23.33.040,FigureTest,2022.2.4,59.92072512804996,
PreCondition/CS+3.BMP,-0.1,,,,,2,0,2,0,0,9,9,4,,,,,,,,,,,,,,,,,,1450.6387021249975,1450.6387021249975,1456.618735083961,1456.6524948339793,1465.0292970419978,,,,,,,,,,,,,,,,,,,,,,,k,001,2022-12-06_13h23.33.040,FigureTest,2022.2.4,59.92072512804996,
,-0.1,Instructions_EN/ratingCS+3.png,,,,2,0,2,0,,,,,0,0,0,0,,,,,,,,,,,,,,,,,,,1465.0292970419978,1465.0292970419978,1465.0292970419978,None,None,3,2.6567719159647822,,,,,,,,,,,,,,,,k,001,2022-12-06_13h23.33.040,FigureTest,2022.2.4,59.92072512804996,
,0.4,Instructions_EN/ratingCS+4.png,,,,2,0,2,0,,,,,0,1,1,1,,,,,,,,,,,,,,,,,,,1467.7686693749856,1467.7686693749856,1467.7686693749856,None,None,3,0.9495716660167091,,,,,,,,,,,,,,,,k,001,2022-12-06_13h23.33.040,FigureTest,2022.2.4,59.92072512804996,
,0.4,,Condition/CS+4.BMP,Condition/black.PNG,Sound/silent.wav,2,0,2,0,,,,,,,,,0,0,0,16,,,,,,,,,,,,,1478.565119875013,1486.8461207500077,,,,,,,,1468.7650976249715,1468.7650976249715,1468.7650976249715,space,1.6713478319579735,1470.4687280419748,1470.4687280419748,,,,,,,,,k,001,2022-12-06_13h23.33.040,FigureTest,2022.2.4,59.92072512804996,
,0.9,,Condition/CS+3.BMP,Condition/UCS3.BMP,Sound/scream1.wav,2,0,2,0,,,,,,,,,0,1,1,14,,,,,,,,,,,,,1493.8536784169846,1502.1085175420158,,,,,,,,,,,,,1486.8461207500077,1486.8461207500077,1492.9215240419726,1492.9215240419726,1492.9205530000036,,,,,,k,001,2022-12-06_13h23.33.040,FigureTest,2022.2.4,59.92072512804996,
,0.9,,Condition/CS+3.BMP,Condition/UCS3.BMP,Sound/scream1.wav,2,0,2,0,,,,,,,,,0,2,2,11,,,,,,,,,,,,,1509.1205373340053,1517.4539013339672,,,,,,,,,,,,,1502.1085175420158,1502.1085175420158,1508.120654541999,1508.120654541999,1508.119963133568,,,,,,k,001,2022-12-06_13h23.33.040,FigureTest,2022.2.4,59.92072512804996,
,-0.1,,Condition/CS+3.BMP,Condition/black.PNG,Sound/silent.wav,2,0,2,0,,,,,,,,,0,3,3,2,,,,,,,,,,,,,1525.3022939999937,1533.417255459004,,,,,,,,,,,,,1517.4539013339672,1517.4539013339672,,,,,,,,,k,001,2022-12-06_13h23.33.040,FigureTest,2022.2.4,59.92072512804996,
,,,,,,,,,,,,,,,,,,,,,,,,,,,,,,,,,,,,,,,,,,,,,,,,1533.417255459004,1533.417255459004,,,,,,,,,,,,,,,
