PicFileName,TrgCol,TrgCol2,CSName,UCSName,SoundName,PreConditiong.thisRepN,PreConditiong.thisTrialN,PreConditiong.thisN,PreConditiong.thisIndex,Conditioning.thisRepN,Conditioning.thisTrialN,Conditioning.thisN,Conditioning.thisIndex,InstrBkg.started,InstrBkg.stopped,TagFig.started,TagFig.stopped,InstrKeyResp.keys,InstrKeyResp.rt,InstrKeyResp.started,InstrKeyResp.stopped,precondBkg.started,precondBkg.stopped,imagePreCond.started,imagePreCond.stopped,BlankBkg.started,BlankBkg.stopped,InstrBkg2.started,InstrBkg2.stopped,TagFig2.started,TagFig2.stopped,key_resp.keys,key_resp.rt,key_resp.started,key_resp.stopped,CSBkg.started,CSBkg.stopped,CS_image.started,CS_image.stopped,UCSBkg.started,UCSBkg.stopped,UCS_image.started,UCS_image.stopped,sound_1.started,sound_1.stopped,BlankBkg2.started,BlankBkg2.stopped,participant,session,date,expName,psychopyVersion,frameRate,
,,,,,,,,,,,,,,41.24097769999935,None,41.24097769999935,None,space,1.3213892000003398,41.24097769999935,None,,,,,,,,,,,,,,,,,,,,,,,,,,,kkkk,001,2021_Aug_05_0019,FigureTest,2021.2.1,59.872638922190944,
PreCond1\CS+.PNG,-0.1,-0.1,,,,0,0,0,3,,,,,,,,,,,,,42.58739590000005,None,42.58739590000005,43.58469800000057,43.60106690000066,None,,,,,,,,,,,,,,,,,,,,,kkkk,001,2021_Aug_05_0019,FigureTest,2021.2.1,59.872638922190944,
PreCond1\CS-.PNG,0.4,0.1,,,,0,1,1,5,,,,,,,,,,,,,45.767050099999324,None,45.767050099999324,46.7507956999998,46.76741380000021,None,,,,,,,,,,,,,,,,,,,,,kkkk,001,2021_Aug_05_0019,FigureTest,2021.2.1,59.872638922190944,
PreCond1\CS+.PNG,-0.1,-0.1,,,,0,2,2,2,,,,,,,,,,,,,48.88399600000048,None,48.88399600000048,49.8673605999993,49.88358039999912,None,,,,,,,,,,,,,,,,,,,,,kkkk,001,2021_Aug_05_0019,FigureTest,2021.2.1,59.872638922190944,
PreCond1\CS-.PNG,0.4,0.1,,,,0,3,3,8,,,,,,,,,,,,,52.08347859999958,None,52.08347859999958,53.06662289999986,53.0830791999997,None,,,,,,,,,,,,,,,,,,,,,kkkk,001,2021_Aug_05_0019,FigureTest,2021.2.1,59.872638922190944,
PreCond1\CS-.PNG,0.4,0.1,,,,0,4,4,7,,,,,,,,,,,,,55.283401999999114,None,55.283401999999114,56.266533800000616,56.2851541,None,,,,,,,,,,,,,,,,,,,,,kkkk,001,2021_Aug_05_0019,FigureTest,2021.2.1,59.872638922190944,
PreCond1\CS-.PNG,0.4,0.1,,,,0,5,5,9,,,,,,,,,,,,,58.54933560000063,None,58.54933560000063,59.5329985999997,59.54974290000064,None,,,,,,,,,,,,,,,,,,,,,kkkk,001,2021_Aug_05_0019,FigureTest,2021.2.1,59.872638922190944,
PreCond1\CS+.PNG,-0.1,-0.1,,,,0,6,6,0,,,,,,,,,,,,,61.6490419999991,None,61.6490419999991,62.63247640000009,62.65137279999908,None,,,,,,,,,,,,,,,,,,,,,kkkk,001,2021_Aug_05_0019,FigureTest,2021.2.1,59.872638922190944,
PreCond1\CS-.PNG,0.4,0.1,,,,0,7,7,6,,,,,,,,,,,,,64.79883680000057,None,64.79883680000057,65.78195140000025,65.79886570000053,None,,,,,,,,,,,,,,,,,,,,,kkkk,001,2021_Aug_05_0019,FigureTest,2021.2.1,59.872638922190944,
PreCond1\CS+.PNG,-0.1,-0.1,,,,0,8,8,1,,,,,,,,,,,,,67.9652016,None,67.9652016,68.94837949999965,68.96479689999978,None,,,,,,,,,,,,,,,,,,,,,kkkk,001,2021_Aug_05_0019,FigureTest,2021.2.1,59.872638922190944,
PreCond1\CS+.PNG,-0.1,-0.1,,,,0,9,9,4,,,,,,,,,,,,,71.0485064000004,None,71.0485064000004,72.03123070000038,72.04790250000042,None,,,,,,,,,,,,,,,,,,,,,kkkk,001,2021_Aug_05_0019,FigureTest,2021.2.1,59.872638922190944,
,,,,,,,,,,,,,,,,,,,,,,,,,,,,74.33316589999959,None,74.33316589999959,None,space,7.62253420000161,74.33316589999959,None,,,,,,,,,,,,,kkkk,001,2021_Aug_05_0019,FigureTest,2021.2.1,59.872638922190944,
,0.4,0.1,Cond1\CS-.PNG,Cond1\UCS.PNG,Sound\2.wav,,,,,0,0,0,16,,,,,,,,,,,,,,,,,,,,,,,81.9851710999992,None,81.9851710999992,None,83.9967816999997,None,83.9967816999997,None,83.99652893999955,None,85.05713970000033,None,kkkk,001,2021_Aug_05_0019,FigureTest,2021.2.1,59.872638922190944,
,-0.1,-0.1,Cond1\CS+.PNG,Cond1\UCS.PNG,Sound\1.wav,,,,,0,1,1,8,,,,,,,,,,,,,,,,,,,,,,,87.19658929999969,None,87.19658929999969,None,89.1962151000007,None,89.1962151000007,None,89.19608573999976,None,90.25354719999996,None,kkkk,001,2021_Aug_05_0019,FigureTest,2021.2.1,59.872638922190944,
,0.4,0.1,Cond1\CS-.PNG,Cond1\UCS.PNG,Sound\2.wav,,,,,0,2,2,19,,,,,,,,,,,,,,,,,,,,,,,92.51236210000025,None,92.51236210000025,None,94.51254639999934,95.51227719999952,94.51254639999934,95.51227719999952,94.51382024000013,None,95.5639900999995,None,kkkk,001,2021_Aug_05_0019,FigureTest,2021.2.1,59.872638922190944,
,-0.1,-0.1,Cond1\CS+.PNG,Cond1\UCS.PNG,Sound\1.wav,,,,,0,3,3,7,,,,,,,,,,,,,,,,,,,,,,,97.91411599999992,None,97.91411599999992,None,99.92887589999918,None,99.92887589999918,None,99.92979454000015,None,100.98587149999912,None,kkkk,001,2021_Aug_05_0019,FigureTest,2021.2.1,59.872638922190944,
,0.4,0.1,Cond1\CS-.PNG,Cond1\UCS.PNG,Sound\2.wav,,,,,0,4,4,13,,,,,,,,,,,,,,,,,,,,,,,103.3113513999997,None,103.3113513999997,None,105.311511599999,106.31100809999953,105.311511599999,106.31100809999953,105.31242364000063,None,106.32826629999909,None,kkkk,001,2021_Aug_05_0019,FigureTest,2021.2.1,59.872638922190944,
,0.4,0.1,Cond1\CS-.PNG,Cond1\UCS.PNG,Sound\2.wav,,,,,0,5,5,18,,,,,,,,,,,,,,,,,,,,,,,108.49431369999911,None,108.49431369999911,None,110.49439800000073,None,110.49439800000073,None,110.49435963999967,None,111.57471260000057,None,kkkk,001,2021_Aug_05_0019,FigureTest,2021.2.1,59.872638922190944,
,-0.1,-0.1,Cond1\CS+.PNG,Cond1\UCS.PNG,Sound\1.wav,,,,,0,6,6,3,,,,,,,,,,,,,,,,,,,,,,,113.69407519999913,None,113.69407519999913,None,115.69354009999915,None,115.69354009999915,None,115.69376083999923,None,116.76462700000047,None,kkkk,001,2021_Aug_05_0019,FigureTest,2021.2.1,59.872638922190944,
,0.4,0.1,Cond1\CS-.PNG,Cond1\UCS.PNG,Sound\2.wav,,,,,0,7,7,14,,,,,,,,,,,,,,,,,,,,,,,119.09322769999926,None,119.09322769999926,None,121.09357979999913,None,121.09357979999913,None,121.09420453999955,None,122.10108120000041,None,kkkk,001,2021_Aug_05_0019,FigureTest,2021.2.1,59.872638922190944,
,0.4,0.1,Cond1\CS-.PNG,Cond1\UCS.PNG,Sound\2.wav,,,,,0,8,8,17,,,,,,,,,,,,,,,,,,,,,,,124.57654670000011,None,124.57654670000011,None,126.57705489999898,None,126.57705489999898,None,126.57651743999922,None,127.59623680000004,None,kkkk,001,2021_Aug_05_0019,FigureTest,2021.2.1,59.872638922190944,
,-0.1,-0.1,Cond1\CS+.PNG,Cond1\UCS.PNG,Sound\1.wav,,,,,0,9,9,9,,,,,,,,,,,,,,,,,,,,,,,130.09888279999905,None,130.09888279999905,None,132.1090793000003,None,132.1090793000003,None,132.1092404399995,None,133.10874859999967,None,kkkk,001,2021_Aug_05_0019,FigureTest,2021.2.1,59.872638922190944,
,0.4,0.1,Cond1\CS-.PNG,Cond1\UCS.PNG,Sound\2.wav,,,,,0,10,10,12,,,,,,,,,,,,,,,,,,,,,,,135.4916577999993,None,135.4916577999993,None,137.4919315999996,None,137.4919315999996,None,137.49142463999925,None,138.5592099000005,None,kkkk,001,2021_Aug_05_0019,FigureTest,2021.2.1,59.872638922190944,
,0.4,0.1,Cond1\CS-.PNG,Cond1\UCS.PNG,Sound\2.wav,,,,,0,11,11,15,,,,,,,,,,,,,,,,,,,,,,,140.69235130000015,None,140.69235130000015,None,142.70785260000048,None,142.70785260000048,None,142.70783143999944,None,143.71209219999946,None,kkkk,001,2021_Aug_05_0019,FigureTest,2021.2.1,59.872638922190944,
,-0.1,-0.1,Cond1\CS+.PNG,Cond1\UCS.PNG,Sound\1.wav,,,,,0,12,12,2,,,,,,,,,,,,,,,,,,,,,,,146.04094009999972,None,146.04094009999972,None,148.0420565000004,None,148.0420565000004,None,148.04255493999955,None,149.06431709999924,None,kkkk,001,2021_Aug_05_0019,FigureTest,2021.2.1,59.872638922190944,
,0.4,0.1,Cond1\CS-.PNG,Cond1\UCS.PNG,Sound\2.wav,,,,,0,13,13,10,,,,,,,,,,,,,,,,,,,,,,,151.4067197000004,None,151.4067197000004,None,153.40678019999905,None,153.40678019999905,None,153.40696033999922,None,154.40674269999909,None,kkkk,001,2021_Aug_05_0019,FigureTest,2021.2.1,59.872638922190944,
,0.4,0.1,Cond1\CS-.PNG,Cond1\UCS.PNG,Sound\2.wav,,,,,0,14,14,11,,,,,,,,,,,,,,,,,,,,,,,156.70878420000008,None,156.70878420000008,None,158.7230510999998,None,158.7230510999998,None,158.7230825399991,None,159.76022150000063,None,kkkk,001,2021_Aug_05_0019,FigureTest,2021.2.1,59.872638922190944,
,-0.1,-0.1,Cond1\CS+.PNG,Cond1\UCS.PNG,Sound\1.wav,,,,,0,15,15,4,,,,,,,,,,,,,,,,,,,,,,,162.05593020000015,None,162.05593020000015,None,164.05979579999985,None,164.05979579999985,None,164.05658343999932,165.06834510000044,165.08931699999994,None,kkkk,001,2021_Aug_05_0019,FigureTest,2021.2.1,59.872638922190944,
,0,0,Cond1\CS+.PNG,Cond1\blank.png,Sound\2.wav,,,,,0,16,16,0,,,,,,,,,,,,,,,,,,,,,,,167.32179639999958,None,167.32179639999958,None,None,None,None,None,None,None,172.88460619999933,None,kkkk,001,2021_Aug_05_0019,FigureTest,2021.2.1,59.872638922190944,
,0,0,Cond1\CS+.PNG,Cond1\blank.png,Sound\2.wav,,,,,0,17,17,1,,,,,,,,,,,,,,,,,,,,,,,175.04724369999894,None,175.04724369999894,None,178.11174609999944,None,178.11174609999944,None,178.0442945400053,None,178.1857944000003,None,kkkk,001,2021_Aug_05_0019,FigureTest,2021.2.1,59.872638922190944,
,-0.1,-0.1,Cond1\CS+.PNG,Cond1\UCS.PNG,Sound\1.wav,,,,,0,18,18,6,,,,,,,,,,,,,,,,,,,,,,,180.46597409999958,None,180.46597409999958,None,182.5663937999998,None,182.5663937999998,None,182.5686599800007,None,183.48683290000008,None,kkkk,001,2021_Aug_05_0019,FigureTest,2021.2.1,59.872638922190944,
,-0.1,-0.1,Cond1\CS+.PNG,Cond1\UCS.PNG,Sound\1.wav,,,,,0,19,19,5,,,,,,,,,,,,,,,,,,,,,,,185.5525644999998,None,185.5525644999998,None,187.55223979999937,None,187.55223979999937,None,187.55225003999914,None,188.5605543999991,None,kkkk,001,2021_Aug_05_0019,FigureTest,2021.2.1,59.872638922190944,
